Timestamp,Thumb Flex,Pointer Flex,Middle Flex,Ring Flex,Pinky Flex,Thumb Acc. X,Thumb Acc. Y,Thumb Acc. Z,Thumb Gyro X,Thumb Gyro Y,Thumb Gyro Z,Pointer Acc. X,Pointer Acc. Y,Pointer Acc. Z,Pointer Gyro X,Pointer Gyro Y,Pointer Gyro Z,Middle Acc. X,Middle Acc. Y,Middle Acc. Z,Middle Gyro X,Middle Gyro Y,Middle Gyro Z,Ring Acc. X,Ring Acc. Y,Ring Acc. Z,Ring Gyro X,Ring Gyro Y,Ring Gyro Z,Pinky Acc. X,Pinky Acc. Y,Pinky Acc. Z,Pinky Gyro X,Pinky Gyro Y,Pinky Gyro Z,Wrist Gyro X,Wrist Gyro Y,Wrist Gyro Z,Wrist Acc. X,Wrist Acc. Y,Wrist Acc. Z,Hand
0.061,255,255,255,255,255,-7.89,0.84,6.04,-0.01,0.01,-0.00,-8.84,-2.92,3.60,-0.03,0.00,-0.03,-8.18,-2.20,5.39,0.01,0.01,-0.02,-5.34,-5.32,6.42,-0.00,-0.00,-0.01,-2.18,-3.51,8.90,-0.01,-0.01,0.00,-0.52,0.08,0.86,0.31,-0.12,-0.12,L
0.108,255,255,255,255,255,-7.87,0.81,6.01,-0.01,0.01,-0.01,-8.85,-2.96,3.59,-0.03,0.00,-0.02,-8.17,-2.16,5.45,0.01,0.02,-0.01,-5.36,-5.30,6.44,0.00,-0.00,0.01,-2.11,-3.51,8.94,-0.01,-0.01,0.01,-0.52,0.08,0.86,-0.12,0.06,-0.12,L
0.16,255,255,255,255,255,-7.82,0.84,6.05,-0.01,0.01,0.00,-8.88,-2.91,3.53,-0.03,-0.00,-0.02,-8.22,-2.15,5.41,0.01,0.02,-0.00,-5.37,-5.25,6.45,0.00,-0.01,0.01,-2.12,-3.45,8.91,-0.02,-0.01,0.00,-0.52,0.08,0.86,-0.18,-0.06,0.06,L
0.211,255,255,255,255,255,-7.88,0.77,6.04,-0.01,0.00,-0.00,-8.83,-2.93,3.57,-0.03,-0.01,-0.02,-8.25,-2.23,5.42,0.01,0.02,-0.00,-5.40,-5.27,6.48,0.00,-0.00,0.00,-2.15,-3.48,8.96,-0.01,-0.01,0.00,-0.52,0.08,0.86,-0.06,0.00,-0.06,L
0.263,255,255,255,255,255,-7.93,0.79,6.04,-0.00,0.01,0.00,-8.80,-2.89,3.57,-0.03,-0.00,-0.02,-8.22,-2.19,5.46,0.01,0.02,-0.01,-5.32,-5.37,6.45,0.00,0.00,0.00,-2.13,-3.52,8.97,-0.02,-0.01,0.00,-0.52,0.08,0.86,0.00,-0.06,0.24,L
0.311,255,255,255,255,255,-7.90,0.80,6.06,-0.00,0.01,-0.00,-8.85,-2.86,3.62,-0.03,0.00,-0.02,-8.17,-2.14,5.38,0.01,0.02,-0.01,-5.39,-5.26,6.41,0.01,0.00,0.01,-2.10,-3.47,8.87,-0.00,-0.01,0.01,-0.52,0.09,0.86,0.00,0.06,0.12,L
0.363,255,255,255,0,255,-7.88,0.79,5.97,-0.01,0.01,-0.01,-8.83,-2.94,3.54,-0.03,0.00,-0.03,-8.15,-2.18,5.37,0.01,0.02,-0.01,-5.42,-5.36,6.47,0.01,-0.00,0.01,-2.08,-3.44,8.91,-0.01,-0.01,0.01,-0.52,0.08,0.86,-0.18,0.18,0.06,L
0.414,255,255,255,0,255,-7.88,0.81,6.02,-0.00,0.01,-0.00,-8.91,-2.90,3.61,-0.03,-0.00,-0.02,-8.14,-2.15,5.46,0.01,0.02,-0.01,-5.43,-5.34,6.44,0.01,-0.00,0.01,-2.18,-3.47,8.92,-0.02,-0.01,0.00,-0.52,0.08,0.86,0.00,0.06,-0.06,L
0.466,255,255,255,255,255,-7.85,0.87,6.04,-0.01,0.01,-0.00,-8.84,-2.92,3.60,-0.03,0.00,-0.02,-8.19,-2.16,5.37,0.00,0.01,-0.01,-5.41,-5.34,6.42,0.00,-0.00,0.01,-2.11,-3.51,8.88,-0.01,-0.01,0.00,-0.52,0.08,0.86,-0.24,0.06,0.00,L
0.519,255,255,255,255,255,-7.91,0.82,6.08,0.00,0.01,-0.00,-8.86,-2.95,3.55,-0.03,0.00,-0.02,-8.19,-2.16,5.41,0.01,0.02,-0.01,-5.40,-5.28,6.48,0.00,0.00,0.00,-2.07,-3.50,8.96,-0.02,-0.00,0.00,-0.52,0.08,0.86,-0.12,0.06,-0.12,L
0.579,255,255,255,255,255,-7.90,0.82,6.05,0.00,0.02,-0.00,-8.86,-2.87,3.62,-0.03,0.00,-0.02,-8.21,-2.19,5.43,0.01,0.02,-0.01,-5.31,-5.29,6.48,0.00,0.00,-0.01,-2.09,-3.41,8.97,-0.01,-0.00,0.00,-0.52,0.09,0.86,0.12,0.06,-0.12,L
0.621,127,255,255,255,255,-7.83,0.82,6.05,-0.00,0.01,-0.00,-8.85,-2.87,3.64,-0.03,0.00,-0.02,-8.18,-2.12,5.46,0.01,0.02,-0.01,-5.35,-5.28,6.43,0.01,-0.01,-0.00,-2.14,-3.51,8.95,-0.01,-0.01,0.00,-0.52,0.09,0.86,-0.06,-0.06,0.00,L
0.669,255,255,255,0,255,-7.81,0.82,6.07,-0.01,0.01,0.00,-8.81,-2.89,3.60,-0.03,0.00,-0.02,-8.20,-2.22,5.43,0.01,0.02,-0.01,-5.33,-5.31,6.43,0.01,0.00,0.01,-2.15,-3.53,8.94,-0.01,-0.01,0.01,-0.52,0.08,0.86,-0.12,0.12,0.12,L
0.721,255,255,255,255,255,-7.89,0.85,6.04,-0.01,0.01,0.00,-8.83,-2.91,3.60,-0.03,-0.00,-0.02,-8.22,-2.10,5.36,0.01,0.02,-0.01,-5.35,-5.31,6.41,-0.01,0.00,0.01,-2.16,-3.51,8.91,-0.01,-0.01,0.01,-0.52,0.08,0.86,0.00,0.06,0.24,L
0.77,255,255,255,255,255,-7.84,0.85,5.99,-0.01,0.01,0.00,-8.87,-2.87,3.65,-0.03,-0.00,-0.02,-8.21,-2.15,5.48,0.01,0.02,-0.01,-5.34,-5.34,6.45,0.01,-0.00,0.00,-2.10,-3.45,8.90,-0.02,-0.01,0.00,-0.52,0.08,0.86,-0.12,0.00,-0.06,L
0.827,0,255,255,255,255,-7.88,0.80,6.03,0.00,0.00,-0.00,-8.82,-2.94,3.58,-0.03,-0.01,-0.02,-8.23,-2.19,5.40,0.01,0.02,-0.01,-5.25,-5.35,6.43,0.01,0.00,0.00,-2.09,-3.50,8.93,-0.01,-0.01,0.00,-0.52,0.08,0.86,-0.12,0.06,-0.18,L
0.874,255,255,255,255,255,-7.83,0.85,6.04,-0.00,0.01,0.00,-8.80,-2.87,3.66,-0.03,-0.00,-0.03,-8.23,-2.18,5.45,0.01,0.02,-0.01,-5.36,-5.31,6.44,0.00,0.00,0.01,-2.10,-3.52,8.94,-0.02,-0.01,0.01,-0.52,0.08,0.86,0.00,0.00,0.06,L
0.928,255,255,255,255,255,-7.90,0.80,6.02,-0.00,0.01,0.00,-8.90,-2.90,3.56,-0.03,0.00,-0.02,-8.27,-2.17,5.40,0.01,0.02,-0.01,-5.37,-5.36,6.47,0.00,-0.00,0.01,-2.10,-3.53,8.92,-0.04,-0.01,0.00,-0.52,0.08,0.86,-0.31,0.24,0.00,L
0.98,255,255,255,255,255,-7.88,0.87,5.99,-0.01,0.01,0.00,-8.87,-2.94,3.56,-0.03,-0.01,-0.02,-8.21,-2.16,5.41,0.01,0.02,-0.01,-5.36,-5.29,6.43,0.00,-0.00,0.01,-2.15,-3.47,8.94,-0.02,-0.01,0.01,-0.52,0.08,0.86,-0.18,0.24,0.00,L
1.027,255,255,255,255,255,-7.91,0.83,6.04,-0.01,0.01,0.00,-8.87,-2.90,3.62,-0.03,-0.00,-0.02,-8.18,-2.19,5.43,0.00,0.01,-0.01,-5.31,-5.27,6.47,-0.00,0.00,0.01,-2.10,-3.51,8.93,-0.01,-0.01,0.01,-0.52,0.09,0.86,-0.55,0.06,0.37,L
1.081,255,255,255,255,255,-7.93,0.81,6.04,-0.02,0.01,-0.01,-8.84,-2.94,3.62,-0.03,-0.01,-0.02,-8.18,-2.16,5.47,0.01,0.01,-0.01,-5.31,-5.31,6.50,0.00,0.00,0.01,-2.09,-3.52,8.97,-0.02,-0.00,0.01,-0.52,0.08,0.86,-0.06,0.12,0.18,L
1.127,0,255,255,255,255,-7.90,0.74,6.01,-0.01,0.00,-0.01,-8.73,-2.94,3.58,-0.03,-0.00,-0.02,-8.14,-2.19,5.39,0.01,0.02,-0.01,-5.35,-5.30,6.43,0.01,-0.00,0.01,-2.13,-3.50,9.01,-0.00,-0.01,0.00,-0.52,0.08,0.86,-0.24,0.24,-0.06,L
1.178,255,255,255,255,255,-7.78,0.77,6.08,-0.01,0.00,0.00,-8.88,-2.96,3.63,-0.03,-0.00,-0.02,-8.22,-2.20,5.43,0.01,0.02,-0.01,-5.37,-5.31,6.42,-0.01,0.01,0.00,-2.13,-3.49,8.97,-0.02,-0.00,0.01,-0.52,0.08,0.86,-0.06,0.06,0.31,L
1.23,255,255,255,255,255,-7.92,0.83,6.07,-0.01,0.00,-0.00,-8.83,-2.86,3.56,-0.03,-0.00,-0.02,-8.22,-2.22,5.42,0.01,0.02,-0.00,-5.45,-5.30,6.44,0.01,-0.01,0.01,-2.17,-3.48,8.91,-0.01,-0.01,0.01,-0.52,0.08,0.86,-0.43,0.18,0.00,L
1.282,255,255,255,0,255,-7.88,0.83,6.00,-0.00,0.01,0.00,-8.90,-2.97,3.61,-0.03,0.00,-0.02,-8.26,-2.24,5.40,0.01,0.02,-0.01,-5.36,-5.33,6.45,0.00,0.00,0.01,-2.06,-3.44,8.96,-0.03,-0.01,0.01,-0.52,0.08,0.86,-0.24,0.06,0.06,L
1.331,255,255,255,255,255,-7.84,0.84,6.03,-0.01,0.00,-0.00,-8.82,-2.89,3.58,-0.03,-0.01,-0.02,-8.21,-2.20,5.40,0.01,0.01,-0.01,-5.32,-5.37,6.41,-0.00,-0.00,0.00,-2.14,-3.47,8.93,-0.01,0.00,0.00,-0.52,0.09,0.86,0.06,0.31,0.43,L
1.383,255,255,255,255,255,-7.84,0.82,6.08,-0.01,0.01,0.00,-8.90,-2.95,3.68,-0.03,0.00,-0.02,-8.23,-2.25,5.47,0.01,0.02,-0.01,-5.32,-5.28,6.40,0.01,-0.00,0.00,-2.12,-3.49,8.95,-0.01,-0.01,0.00,-0.52,0.08,0.86,-0.24,0.12,0.12,L
1.433,255,255,255,255,255,-7.85,0.81,6.01,-0.01,0.01,0.00,-8.83,-2.90,3.53,-0.04,0.00,-0.02,-8.16,-2.18,5.40,0.01,0.02,-0.01,-5.44,-5.32,6.42,0.00,0.00,0.01,-2.15,-3.51,8.99,-0.01,-0.00,0.01,-0.52,0.08,0.86,-0.24,0.37,0.31,L
1.484,255,255,255,255,255,-7.87,0.79,6.03,-0.01,0.01,0.00,-8.85,-2.94,3.62,-0.03,-0.01,-0.02,-8.25,-2.18,5.42,0.01,0.02,-0.01,-5.35,-5.37,6.45,0.00,-0.01,0.00,-2.09,-3.48,8.93,-0.02,-0.01,-0.00,-0.52,0.08,0.86,-0.43,0.00,0.06,L
1.537,255,255,255,0,255,-7.90,0.85,6.04,-0.00,0.01,-0.00,-8.82,-2.88,3.62,-0.04,0.00,-0.02,-8.23,-2.16,5.46,0.01,0.02,-0.01,-5.43,-5.34,6.46,0.01,-0.01,0.01,-2.16,-3.44,8.94,-0.02,-0.00,0.01,-0.52,0.08,0.86,-0.12,0.24,0.18,L
1.586,255,255,255,255,255,-7.86,0.81,6.06,-0.02,0.01,0.00,-8.85,-2.87,3.59,-0.03,-0.01,-0.02,-8.23,-2.12,5.46,0.00,0.02,-0.01,-5.38,-5.31,6.44,0.00,-0.01,0.00,-2.14,-3.49,8.89,-0.01,-0.00,0.01,-0.52,0.08,0.86,-0.24,0.37,0.43,L
1.641,255,255,255,255,255,-7.86,0.78,6.07,-0.01,0.01,0.00,-8.82,-2.87,3.65,-0.03,-0.01,-0.02,-8.18,-2.16,5.46,0.01,0.01,-0.01,-5.28,-5.25,6.44,0.00,-0.00,0.01,-2.09,-3.51,8.95,-0.01,-0.01,0.01,-0.52,0.08,0.86,-0.31,-0.12,0.24,L
1.694,0,255,255,255,255,-7.87,0.87,6.06,-0.01,0.01,0.00,-8.85,-2.95,3.64,-0.03,-0.00,-0.02,-8.23,-2.22,5.43,0.01,0.02,-0.01,-5.30,-5.33,6.46,0.00,-0.01,0.00,-2.13,-3.44,8.97,-0.02,-0.01,0.00,-0.52,0.08,0.86,0.00,0.31,0.18,L
1.743,255,255,255,255,255,-7.82,0.83,5.98,-0.01,0.01,-0.00,-8.83,-2.93,3.57,-0.02,-0.00,-0.02,-8.18,-2.18,5.42,0.00,0.01,-0.01,-5.40,-5.34,6.40,0.00,-0.00,0.00,-2.14,-3.50,8.94,-0.02,-0.01,0.01,-0.52,0.08,0.86,-0.06,0.06,0.18,L
1.796,255,255,255,255,255,-7.85,0.85,6.05,-0.00,0.01,0.01,-8.89,-2.90,3.62,-0.03,-0.00,-0.01,-8.26,-2.17,5.42,0.01,0.02,-0.01,-5.45,-5.30,6.51,0.01,-0.00,0.01,-2.13,-3.46,8.96,-0.02,-0.01,0.01,-0.52,0.09,0.87,-0.31,0.18,0.12,L
1.851,255,255,255,255,255,-7.90,0.77,5.97,-0.01,0.01,-0.01,-8.84,-2.91,3.59,-0.03,-0.01,-0.03,-8.25,-2.19,5.37,0.01,0.02,-0.01,-5.36,-5.31,6.43,0.01,0.00,0.00,-2.10,-3.48,8.93,-0.01,-0.01,0.01,-0.52,0.08,0.86,0.18,0.24,0.37,L
1.899,255,255,255,255,255,-7.85,0.79,6.04,-0.02,0.00,-0.00,-8.77,-2.92,3.62,-0.03,-0.01,-0.02,-8.20,-2.19,5.47,0.01,0.01,-0.01,-5.34,-5.34,6.47,0.01,-0.00,0.01,-2.08,-3.53,8.94,-0.01,-0.01,0.01,-0.52,0.08,0.86,-0.49,0.06,0.12,L
1.945,255,255,255,0,255,-7.90,0.83,6.02,-0.01,0.01,0.00,-8.85,-2.94,3.62,-0.03,-0.00,-0.01,-8.23,-2.13,5.43,0.00,0.02,-0.00,-5.36,-5.32,6.42,0.00,-0.00,0.01,-2.12,-3.50,9.04,-0.02,-0.01,0.01,-0.52,0.08,0.86,-0.31,0.12,0.24,L
1.997,255,255,255,0,255,-7.86,0.79,6.07,-0.01,0.01,0.00,-8.85,-2.92,3.62,-0.02,-0.01,-0.02,-8.19,-2.15,5.41,0.01,0.02,-0.01,-5.36,-5.34,6.45,0.01,-0.01,0.00,-2.10,-3.48,8.94,-0.01,-0.01,0.00,-0.52,0.08,0.86,-0.18,-0.06,0.00,L
2.046,255,255,255,0,255,-7.86,0.81,6.04,0.00,0.01,0.01,-8.90,-2.89,3.62,-0.02,0.00,-0.02,-8.19,-2.19,5.44,0.02,0.02,-0.01,-5.35,-5.41,6.44,0.01,-0.00,0.01,-2.15,-3.50,8.97,-0.02,-0.02,0.00,-0.52,0.08,0.86,-0.31,0.00,-0.49,L
2.097,0,255,255,255,255,-7.86,0.82,6.04,0.00,0.01,0.00,-8.84,-2.86,3.64,-0.03,0.00,-0.02,-8.19,-2.13,5.40,0.01,0.02,-0.01,-5.34,-5.20,6.45,0.01,-0.00,0.01,-2.09,-3.44,8.96,-0.02,-0.01,0.01,-0.52,0.09,0.86,-0.12,0.12,-0.18,L
2.148,255,255,255,255,255,-7.75,0.85,6.04,-0.01,0.01,-0.00,-8.83,-2.87,3.67,-0.03,-0.00,-0.02,-8.19,-2.18,5.43,0.01,0.01,-0.01,-5.32,-5.29,6.48,0.01,0.00,0.00,-2.15,-3.44,8.95,-0.01,-0.01,0.01,-0.52,0.09,0.86,-0.24,0.00,-0.18,L
2.197,255,255,255,255,255,-7.87,0.80,6.03,-0.01,0.01,-0.00,-8.81,-2.91,3.61,-0.03,-0.00,-0.03,-8.17,-2.18,5.41,0.01,0.02,-0.01,-5.33,-5.29,6.39,0.01,0.00,0.00,-2.12,-3.53,8.95,-0.01,-0.01,0.00,-0.52,0.08,0.86,-0.06,0.00,-0.12,L
2.249,255,255,255,0,255,-7.87,0.84,6.07,-0.00,0.01,0.00,-8.84,-2.86,3.62,-0.03,-0.01,-0.02,-8.19,-2.24,5.46,0.02,0.02,-0.01,-5.39,-5.30,6.43,0.01,0.00,0.00,-2.11,-3.48,8.94,-0.02,-0.01,-0.00,-0.52,0.08,0.86,0.06,-0.18,-0.18,L
2.308,255,255,255,255,255,-7.97,0.82,6.05,0.00,0.00,-0.01,-8.85,-2.88,3.62,-0.02,0.00,-0.03,-8.19,-2.19,5.42,0.02,0.01,-0.01,-5.37,-5.33,6.46,0.01,-0.00,-0.00,-2.12,-3.50,8.97,-0.01,-0.01,0.00,-0.52,0.08,0.87,0.18,0.12,-0.43,L
2.356,255,255,255,255,255,-7.82,0.77,6.02,0.00,0.01,0.00,-8.83,-2.83,3.62,-0.02,0.01,-0.02,-8.15,-2.10,5.45,0.01,0.02,-0.01,-5.30,-5.30,6.45,-0.00,0.00,0.00,-2.08,-3.43,8.96,-0.02,-0.01,0.01,-0.52,0.08,0.86,-0.06,0.00,-0.24,L
2.404,255,255,255,255,255,-7.85,0.87,6.08,-0.01,0.02,-0.01,-8.89,-2.92,3.63,-0.03,-0.00,-0.02,-8.22,-2.17,5.43,0.02,0.02,-0.01,-5.29,-5.32,6.44,0.01,0.00,0.00,-2.06,-3.51,8.93,-0.01,-0.01,0.00,-0.52,0.09,0.86,-0.12,0.12,-0.24,L
2.455,0,255,255,255,255,-7.83,0.86,6.05,0.00,0.02,-0.00,-8.85,-2.87,3.64,-0.02,0.01,-0.03,-8.22,-2.16,5.43,0.01,0.02,-0.01,-5.32,-5.27,6.51,0.00,0.00,0.00,-2.10,-3.40,8.98,-0.01,-0.00,0.00,-0.52,0.09,0.86,0.31,0.24,-0.06,L
2.51,255,255,255,0,255,-7.86,0.78,6.01,-0.01,0.02,-0.01,-8.85,-2.96,3.62,-0.03,0.01,-0.03,-8.23,-2.21,5.45,0.01,0.02,-0.02,-5.43,-5.32,6.48,-0.00,0.00,-0.00,-2.14,-3.56,8.96,-0.01,0.00,0.00,-0.52,0.08,0.86,0.55,0.43,-0.06,L
2.564,255,255,255,255,255,-7.84,0.79,5.98,0.01,0.02,0.00,-8.75,-2.83,3.62,-0.03,0.01,-0.02,-8.20,-2.14,5.39,0.01,0.03,-0.01,-5.34,-5.34,6.49,0.01,0.01,0.01,-2.15,-3.50,8.96,-0.01,0.00,0.00,-0.52,0.08,0.86,0.18,0.85,-0.18,L
2.61,255,255,255,255,255,-7.93,0.84,6.03,0.00,0.02,0.00,-8.89,-2.86,3.59,-0.02,0.01,-0.02,-8.26,-2.21,5.52,0.01,0.02,-0.00,-5.43,-5.24,6.52,0.02,0.01,0.01,-2.15,-3.42,9.01,-0.01,-0.01,0.01,-0.52,0.09,0.87,0.18,0.37,0.12,L
2.661,255,255,255,255,255,-7.86,0.85,5.98,-0.01,0.02,-0.01,-8.80,-2.91,3.57,-0.03,0.00,-0.03,-8.24,-2.15,5.42,0.00,0.02,-0.01,-5.32,-5.28,6.45,-0.01,0.00,0.00,-2.12,-3.47,8.89,-0.01,-0.01,0.01,-0.52,0.08,0.86,0.12,0.00,0.37,L
2.711,255,255,255,255,255,-7.86,0.76,6.03,-0.01,0.02,-0.00,-8.83,-2.87,3.60,-0.04,0.00,-0.02,-8.18,-2.18,5.40,0.00,0.02,-0.00,-5.38,-5.35,6.43,-0.02,0.00,0.01,-2.14,-3.47,8.96,-0.02,-0.01,0.01,-0.52,0.08,0.86,-0.24,0.31,0.49,L
2.767,255,255,255,0,255,-7.88,0.83,6.03,-0.02,0.02,-0.00,-8.86,-2.98,3.61,-0.03,-0.00,-0.02,-8.21,-2.25,5.46,0.00,0.02,-0.01,-5.39,-5.33,6.42,0.02,-0.00,0.00,-2.17,-3.51,8.95,-0.01,-0.02,0.01,-0.52,0.08,0.86,-0.37,0.31,0.00,L
2.814,255,255,255,255,255,-7.88,0.81,6.00,0.00,0.01,-0.00,-8.81,-2.90,3.61,-0.02,-0.00,-0.03,-8.23,-2.18,5.45,0.01,0.02,-0.01,-5.31,-5.36,6.47,0.01,0.00,-0.00,-2.13,-3.49,8.96,-0.02,-0.00,0.00,-0.52,0.08,0.86,0.31,0.00,-0.24,L
2.865,255,255,255,0,255,-7.90,0.77,6.02,-0.00,0.02,-0.01,-8.87,-2.93,3.57,-0.03,0.01,-0.03,-8.26,-2.19,5.44,0.01,0.02,-0.02,-5.36,-5.32,6.50,-0.01,0.01,-0.01,-2.01,-3.45,8.96,-0.00,-0.01,-0.01,-0.52,0.08,0.86,0.43,0.00,-0.24,L
2.914,255,255,255,255,255,-7.84,0.85,6.08,0.00,0.01,-0.01,-8.81,-2.84,3.58,-0.02,0.01,-0.03,-8.16,-2.16,5.43,0.01,0.02,-0.01,-5.35,-5.33,6.41,0.01,0.01,0.00,-2.06,-3.49,8.94,-0.01,-0.00,-0.00,-0.52,0.08,0.86,0.37,-0.12,-0.18,L
2.968,255,255,255,255,255,-7.94,0.87,6.05,-0.01,0.00,-0.01,-8.85,-2.82,3.60,-0.02,-0.00,-0.03,-8.16,-2.13,5.49,0.01,0.03,-0.02,-5.39,-5.32,6.46,0.01,0.00,-0.00,-2.05,-3.49,8.95,-0.02,0.00,-0.01,-0.53,0.08,0.86,0.49,0.31,-0.43,L
3.019,255,255,255,0,255,-7.92,0.83,6.04,0.00,0.00,-0.02,-8.82,-2.88,3.62,-0.01,-0.00,-0.03,-8.14,-2.19,5.42,0.02,0.02,-0.02,-5.29,-5.35,6.43,0.00,0.01,-0.01,-2.04,-3.45,8.95,-0.01,0.01,-0.01,-0.52,0.09,0.86,0.98,0.00,-0.43,L
3.073,255,255,255,0,255,-7.92,0.71,6.00,0.01,0.01,-0.02,-8.82,-2.97,3.61,-0.02,0.01,-0.04,-8.18,-2.17,5.48,0.03,0.03,-0.03,-5.31,-5.42,6.43,0.01,0.01,-0.01,-2.11,-3.49,8.93,-0.02,0.01,-0.02,-0.52,0.08,0.86,1.04,0.12,-0.92,L
3.119,255,255,255,0,255,-7.94,0.76,6.04,0.01,0.01,-0.02,-8.88,-2.92,3.51,-0.01,0.01,-0.03,-8.25,-2.13,5.43,0.03,0.03,-0.03,-5.37,-5.32,6.40,-0.01,0.01,-0.01,-2.17,-3.53,8.97,-0.01,0.01,-0.01,-0.52,0.08,0.86,1.10,0.67,-0.92,L
3.167,255,255,255,255,255,-7.92,0.84,5.95,0.01,0.01,-0.01,-8.80,-2.89,3.53,-0.02,0.01,-0.02,-8.24,-2.12,5.41,0.03,0.03,-0.02,-5.48,-5.28,6.39,0.01,0.01,-0.00,-2.20,-3.38,8.98,0.01,0.01,-0.01,-0.52,0.08,0.86,0.43,-0.06,-0.92,L
3.217,255,255,255,255,255,-7.98,0.81,6.00,0.01,0.01,-0.02,-8.83,-2.99,3.47,-0.02,0.01,-0.03,-8.24,-2.16,5.34,0.02,0.03,-0.02,-5.42,-5.28,6.49,0.01,0.01,-0.01,-2.12,-3.39,8.99,0.00,0.01,-0.00,-0.51,0.08,0.86,0.79,0.37,-0.49,L
3.27,255,255,255,255,255,-7.88,0.76,5.99,0.01,0.01,-0.02,-8.85,-2.95,3.52,-0.02,0.00,-0.03,-8.25,-2.16,5.36,0.02,0.02,-0.02,-5.40,-5.33,6.42,0.01,0.01,-0.01,-2.15,-3.46,8.98,-0.02,0.00,-0.01,-0.52,0.08,0.87,0.79,0.43,-0.49,L
3.322,255,255,255,0,255,-7.89,0.85,6.01,0.00,0.02,-0.02,-8.85,-2.94,3.58,-0.02,0.00,-0.03,-8.26,-2.15,5.41,0.02,0.02,-0.02,-5.40,-5.29,6.42,0.01,0.00,-0.01,-2.16,-3.44,8.92,-0.03,-0.01,-0.01,-0.52,0.08,0.86,0.55,-0.18,-0.24,L
3.373,255,255,255,255,255,-7.94,0.83,5.97,0.00,0.01,-0.01,-8.85,-2.93,3.57,-0.02,0.01,-0.03,-8.23,-2.16,5.39,0.01,0.01,-0.01,-5.37,-5.30,6.45,0.00,0.00,-0.01,-2.15,-3.43,8.97,-0.02,-0.00,-0.00,-0.52,0.08,0.87,0.31,0.18,-0.06,L
3.427,255,255,255,255,255,-7.93,0.83,5.97,-0.01,0.01,-0.01,-8.82,-2.90,3.51,-0.02,0.00,-0.04,-8.22,-2.23,5.38,0.01,0.02,-0.02,-5.36,-5.30,6.40,0.01,0.01,-0.01,-2.14,-3.44,8.96,-0.01,-0.00,0.00,-0.52,0.08,0.87,0.37,0.12,0.00,L
3.478,0,255,255,255,255,-7.89,0.83,5.97,-0.01,0.00,-0.01,-8.85,-2.91,3.55,-0.03,-0.01,-0.02,-8.18,-2.21,5.32,0.02,0.01,-0.02,-5.44,-5.26,6.41,0.01,-0.01,-0.01,-2.14,-3.44,8.93,-0.02,-0.01,0.01,-0.52,0.08,0.86,0.00,-0.06,0.12,L
3.525,255,255,255,255,255,-7.92,0.80,6.02,-0.01,0.01,0.01,-8.85,-2.93,3.58,-0.03,0.00,-0.02,-8.22,-2.23,5.41,0.01,0.02,0.00,-5.34,-5.30,6.42,0.01,-0.01,0.00,-2.14,-3.50,8.95,-0.02,-0.01,0.01,-0.52,0.08,0.86,-0.43,0.12,0.24,L
3.577,255,255,255,0,255,-7.90,0.77,5.99,-0.01,0.01,0.00,-8.80,-2.97,3.57,-0.03,-0.01,-0.02,-8.25,-2.16,5.40,0.00,0.02,0.00,-5.36,-5.40,6.39,0.01,-0.00,0.01,-2.17,-3.48,8.91,-0.02,-0.01,0.01,-0.52,0.08,0.86,-0.37,0.18,0.00,L
3.628,255,255,255,255,255,-7.89,0.78,6.00,-0.01,0.01,0.01,-8.77,-2.95,3.60,-0.03,-0.00,-0.02,-8.15,-2.24,5.36,0.01,0.02,-0.01,-5.31,-5.33,6.36,0.00,-0.00,0.00,-2.11,-3.45,8.90,-0.01,-0.01,0.00,-0.52,0.08,0.86,-0.24,-0.12,-0.12,L
3.679,127,255,255,255,255,-7.85,0.81,6.04,-0.00,0.01,-0.00,-8.83,-2.95,3.58,-0.02,0.00,-0.03,-8.21,-2.16,5.40,0.01,0.02,-0.01,-5.32,-5.30,6.47,0.00,0.00,-0.00,-2.09,-3.46,8.92,-0.01,-0.01,-0.00,-0.52,0.08,0.86,0.06,0.24,-0.06,L
3.73,255,255,255,255,255,-7.89,0.86,6.00,-0.00,0.01,-0.00,-8.83,-2.92,3.54,-0.03,0.00,-0.03,-8.20,-2.19,5.43,0.01,0.02,-0.01,-5.35,-5.34,6.48,-0.00,-0.00,0.00,-2.12,-3.48,8.97,-0.01,-0.01,0.00,-0.52,0.08,0.86,0.00,0.18,-0.18,L
3.778,255,255,255,255,255,-7.93,0.81,6.01,-0.01,0.01,-0.00,-8.82,-2.93,3.59,-0.03,0.00,-0.02,-8.19,-2.22,5.38,0.00,0.02,-0.01,-5.37,-5.34,6.41,-0.00,0.01,0.01,-2.13,-3.48,8.95,-0.02,-0.01,0.01,-0.52,0.08,0.87,0.06,0.49,0.24,L
3.831,0,255,255,255,255,-7.94,0.79,6.00,-0.01,0.01,-0.00,-8.87,-2.95,3.59,-0.03,0.00,-0.02,-8.20,-2.15,5.39,0.01,0.02,-0.01,-5.43,-5.32,6.42,0.01,0.00,0.01,-2.19,-3.43,8.94,-0.02,-0.01,0.01,-0.51,0.08,0.87,-0.06,0.24,0.18,L
3.886,255,255,255,255,255,-7.93,0.77,5.98,-0.02,0.00,0.00,-8.87,-2.98,3.50,-0.04,-0.01,-0.03,-8.26,-2.22,5.38,0.00,0.01,-0.01,-5.38,-5.38,6.44,-0.01,-0.00,0.00,-2.14,-3.46,8.95,-0.02,-0.01,0.00,-0.52,0.08,0.87,0.00,0.12,0.55,L
3.934,255,255,255,255,255,-7.92,0.78,5.99,-0.01,0.01,-0.00,-8.85,-2.87,3.58,-0.03,-0.00,-0.02,-8.22,-2.16,5.39,0.01,0.02,-0.01,-5.35,-5.42,6.42,-0.00,-0.00,0.01,-2.11,-3.44,8.99,-0.01,-0.01,0.01,-0.52,0.08,0.87,-0.12,0.12,0.31,L
3.984,255,255,255,255,255,-7.88,0.77,6.03,-0.01,0.01,-0.00,-8.87,-2.96,3.55,-0.04,-0.01,-0.02,-8.21,-2.21,5.38,0.00,0.01,-0.01,-5.38,-5.28,6.42,0.00,-0.01,0.01,-2.11,-3.43,8.97,-0.01,-0.00,0.00,-0.52,0.08,0.87,-0.43,0.24,0.12,L
4.034,255,255,255,0,255,-7.91,0.75,5.99,-0.01,0.00,-0.01,-8.91,-2.93,3.52,-0.02,-0.01,-0.02,-8.25,-2.19,5.46,0.01,0.02,-0.01,-5.36,-5.39,6.38,0.00,0.00,0.00,-2.12,-3.43,8.95,-0.02,-0.01,0.00,-0.52,0.08,0.86,0.18,0.24,0.12,L
4.093,255,255,255,255,255,-7.86,0.78,6.03,-0.01,0.01,-0.00,-8.84,-2.94,3.61,-0.03,-0.01,-0.02,-8.16,-2.19,5.39,0.01,0.01,-0.01,-5.38,-5.36,6.41,0.00,0.00,0.01,-2.14,-3.48,9.00,-0.02,-0.01,0.01,-0.52,0.08,0.87,0.00,0.24,0.18,L
4.136,255,255,255,0,255,-7.92,0.79,6.00,-0.00,0.01,-0.00,-8.83,-2.95,3.59,-0.03,-0.00,-0.02,-8.21,-2.18,5.36,0.01,0.02,0.00,-5.35,-5.36,6.40,0.01,-0.01,0.00,-2.10,-3.44,8.91,-0.02,-0.01,0.01,-0.52,0.08,0.86,-0.24,0.06,0.24,L
4.188,255,255,255,0,255,-7.98,0.83,5.98,-0.01,0.01,0.00,-8.88,-2.91,3.52,-0.03,-0.00,-0.02,-8.25,-2.24,5.38,0.00,0.02,-0.00,-5.40,-5.36,6.44,-0.00,-0.00,0.01,-2.15,-3.53,8.96,-0.03,-0.01,0.01,-0.52,0.08,0.87,-0.31,0.24,0.31,L
4.241,255,255,255,0,255,-7.92,0.83,6.00,-0.01,0.01,-0.01,-8.85,-2.92,3.61,-0.03,-0.00,-0.03,-8.27,-2.23,5.37,0.01,0.01,-0.01,-5.36,-5.43,6.36,0.01,0.00,0.01,-2.13,-3.43,8.92,-0.01,0.00,0.00,-0.52,0.08,0.86,0.06,0.12,0.24,L
4.289,255,255,255,255,255,-7.89,0.79,5.99,-0.02,-0.00,-0.01,-8.85,-2.97,3.59,-0.04,-0.01,-0.02,-8.18,-2.15,5.41,0.01,0.02,-0.01,-5.37,-5.35,6.40,0.00,-0.01,0.01,-2.18,-3.49,8.90,-0.02,-0.01,0.01,-0.52,0.08,0.86,-0.12,-0.12,0.24,L
4.341,255,255,255,255,255,-7.90,0.81,6.01,-0.01,0.01,0.00,-8.82,-2.95,3.56,-0.03,-0.00,-0.02,-8.22,-2.20,5.41,0.00,0.02,-0.00,-5.39,-5.38,6.44,0.01,-0.00,0.00,-2.12,-3.43,8.97,-0.02,-0.01,0.01,-0.52,0.08,0.87,-0.37,0.24,0.18,L
4.393,255,255,255,0,255,-7.94,0.85,6.02,-0.01,0.01,0.00,-8.82,-2.92,3.55,-0.04,-0.00,-0.02,-8.14,-2.24,5.33,0.00,0.01,-0.00,-5.35,-5.33,6.43,0.00,-0.01,0.01,-2.13,-3.48,8.99,-0.02,-0.01,0.01,-0.52,0.08,0.87,-0.31,0.24,0.24,L
4.449,255,255,255,255,255,-7.93,0.75,6.00,0.00,0.01,0.00,-8.87,-2.97,3.61,-0.03,0.00,-0.02,-8.22,-2.17,5.37,0.01,0.02,-0.01,-5.42,-5.36,6.45,0.01,-0.00,0.00,-2.18,-3.39,8.96,-0.01,-0.01,0.00,-0.52,0.08,0.87,0.00,0.18,-0.12,L
4.495,255,255,255,0,255,-7.83,0.83,6.04,-0.01,0.00,-0.00,-8.90,-2.93,3.63,-0.02,0.00,-0.02,-8.25,-2.20,5.39,0.01,0.02,-0.01,-5.37,-5.29,6.44,0.00,0.00,0.00,-2.13,-3.54,8.94,-0.02,-0.00,0.00,-0.52,0.08,0.87,-0.06,0.18,0.18,L
4.547,127,255,255,255,255,-7.89,0.80,6.03,-0.01,0.01,-0.00,-8.82,-2.86,3.59,-0.03,-0.00,-0.02,-8.19,-2.21,5.36,0.01,0.02,-0.00,-5.39,-5.29,6.43,0.01,0.00,0.00,-2.13,-3.42,8.92,-0.01,-0.01,0.01,-0.52,0.08,0.86,-0.18,0.06,0.06,L
4.595,255,255,255,0,255,-7.95,0.81,6.03,-0.01,0.01,-0.00,-8.93,-2.96,3.57,-0.03,0.00,-0.02,-8.26,-2.17,5.43,0.00,0.02,-0.01,-5.34,-5.37,6.45,0.01,0.00,0.01,-2.16,-3.50,8.95,-0.02,-0.01,0.01,-0.52,0.08,0.87,-0.12,0.12,0.12,L
4.648,255,255,255,0,255,-7.89,0.76,6.02,-0.00,0.01,0.00,-8.81,-2.96,3.54,-0.02,-0.00,-0.02,-8.24,-2.20,5.33,0.01,0.02,-0.01,-5.36,-5.36,6.41,0.01,0.00,0.00,-2.11,-3.51,8.93,-0.03,-0.01,0.00,-0.52,0.08,0.87,0.00,0.18,-0.06,L
4.7,255,255,255,255,255,-7.91,0.75,5.97,0.00,0.01,0.00,-8.90,-2.90,3.58,-0.03,0.00,-0.02,-8.29,-2.24,5.35,0.02,0.01,-0.01,-5.39,-5.36,6.40,0.00,-0.00,-0.00,-2.16,-3.43,8.98,-0.02,-0.01,-0.00,-0.52,0.08,0.87,-0.06,-0.24,-0.24,L
4.749,255,255,255,255,255,-7.85,0.77,6.02,-0.00,0.01,-0.00,-8.79,-2.94,3.54,-0.02,0.00,-0.02,-8.18,-2.25,5.38,0.01,0.01,-0.01,-5.38,-5.34,6.44,0.01,0.00,0.00,-2.17,-3.43,8.98,-0.01,-0.00,0.00,-0.52,0.08,0.86,0.00,0.12,-0.18,L
4.8,255,255,255,255,255,-7.90,0.88,6.05,-0.01,0.01,0.00,-8.81,-2.91,3.57,-0.03,0.00,-0.02,-8.19,-2.22,5.39,0.01,0.02,-0.01,-5.35,-5.32,6.42,0.01,0.00,0.00,-2.10,-3.49,8.89,-0.00,-0.01,0.01,-0.52,0.08,0.87,-0.06,0.06,-0.12,L
4.852,255,255,255,255,255,-7.92,0.80,6.02,-0.00,0.01,-0.00,-8.87,-2.97,3.62,-0.02,0.00,-0.02,-8.25,-2.25,5.44,0.01,0.02,-0.00,-5.32,-5.38,6.38,0.01,-0.00,0.00,-2.18,-3.51,8.90,-0.01,-0.01,0.00,-0.52,0.08,0.86,0.00,-0.18,-0.24,L
4.904,127,255,255,255,255,-7.88,0.76,5.97,0.00,0.01,0.00,-8.84,-2.98,3.49,-0.02,0.00,-0.02,-8.26,-2.16,5.37,0.02,0.02,-0.01,-5.39,-5.34,6.42,0.01,-0.00,0.00,-2.12,-3.47,8.99,-0.01,-0.00,0.01,-0.52,0.08,0.87,0.00,-0.06,-0.18,L
4.954,255,255,255,255,255,-7.85,0.85,5.99,-0.00,0.01,0.00,-8.82,-2.94,3.61,-0.02,0.00,-0.01,-8.21,-2.20,5.39,0.01,0.02,-0.01,-5.38,-5.36,6.43,0.01,0.00,0.01,-2.12,-3.46,8.93,-0.01,-0.01,0.01,-0.52,0.08,0.86,-0.55,-0.24,-0.31,L
5.004,255,255,255,255,255,-7.90,0.79,6.01,-0.01,0.01,0.00,-8.84,-2.97,3.59,-0.03,0.00,-0.02,-8.26,-2.19,5.39,0.01,0.02,-0.01,-5.34,-5.34,6.42,0.01,0.00,0.00,-2.13,-3.48,8.96,-0.02,-0.01,0.01,-0.52,0.08,0.86,0.00,-0.18,0.00,L
5.054,0,255,255,255,255,-7.90,0.87,6.02,-0.00,0.00,-0.01,-8.88,-2.92,3.58,-0.03,-0.01,-0.03,-8.23,-2.15,5.39,0.02,0.01,-0.02,-5.40,-5.35,6.44,0.01,0.01,-0.01,-2.13,-3.41,8.99,-0.01,-0.01,0.00,-0.52,0.08,0.87,0.43,0.00,-0.12,L
5.107,0,255,255,255,255,-7.90,0.80,6.00,-0.01,0.01,-0.00,-8.84,-2.92,3.56,-0.02,-0.00,-0.03,-8.20,-2.25,5.40,0.01,0.01,-0.00,-5.37,-5.32,6.37,0.01,0.00,-0.00,-2.17,-3.50,8.90,-0.01,-0.01,0.01,-0.52,0.07,0.86,0.00,-0.24,-0.18,L
5.167,127,255,255,0,255,-7.92,0.79,6.03,-0.00,0.01,0.01,-8.88,-2.94,3.57,-0.02,0.01,-0.01,-8.21,-2.23,5.43,0.02,0.02,-0.00,-5.41,-5.30,6.45,0.01,-0.00,0.00,-2.10,-3.43,8.94,-0.02,-0.01,0.01,-0.52,0.08,0.87,-0.55,0.18,-0.12,L
5.209,255,255,255,255,255,-7.92,0.75,5.93,-0.01,0.01,-0.00,-8.86,-2.95,3.58,-0.02,0.01,-0.02,-8.23,-2.23,5.41,0.02,0.02,-0.01,-5.41,-5.31,6.38,0.00,0.00,0.01,-2.12,-3.44,8.97,-0.01,-0.01,-0.00,-0.52,0.08,0.87,-0.18,-0.12,-0.18,L
5.261,255,255,255,0,255,-7.87,0.77,5.98,0.00,0.01,0.00,-8.86,-2.92,3.53,-0.04,-0.00,-0.03,-8.21,-2.22,5.39,0.01,0.01,-0.00,-5.34,-5.33,6.42,0.00,-0.00,0.00,-2.15,-3.44,8.99,-0.02,-0.01,-0.01,-0.51,0.08,0.86,-0.37,-0.24,-0.18,L
5.31,127,255,255,255,255,-7.93,0.84,6.01,-0.00,0.01,-0.01,-8.86,-2.94,3.54,-0.02,0.00,-0.02,-8.24,-2.22,5.37,0.02,0.02,-0.01,-5.38,-5.32,6.40,0.01,-0.01,0.00,-2.13,-3.47,8.94,-0.02,-0.01,0.00,-0.52,0.08,0.86,0.00,0.06,-0.37,L
5.362,255,255,255,255,255,-7.85,0.82,6.02,-0.01,0.01,0.00,-8.90,-2.94,3.62,-0.03,-0.00,-0.02,-8.21,-2.12,5.38,0.01,0.02,-0.01,-5.36,-5.28,6.45,0.01,0.01,0.01,-2.13,-3.44,8.97,-0.01,-0.01,0.00,-0.52,0.08,0.86,-0.12,-0.06,-0.06,L
5.41,255,255,255,255,255,-7.94,0.76,5.97,-0.01,0.00,-0.01,-8.79,-2.87,3.61,-0.03,-0.01,-0.02,-8.25,-2.20,5.42,0.01,0.02,-0.01,-5.38,-5.32,6.42,0.01,-0.00,0.00,-2.10,-3.49,8.97,-0.01,-0.01,0.01,-0.52,0.08,0.86,-0.12,0.18,-0.06,L
5.465,255,255,255,255,255,-7.96,0.82,5.98,-0.00,0.01,0.00,-8.90,-2.96,3.47,-0.03,0.00,-0.02,-8.23,-2.19,5.35,0.02,0.02,-0.01,-5.39,-5.32,6.39,0.00,0.00,0.01,-2.15,-3.46,8.94,-0.02,-0.01,0.01,-0.52,0.08,0.87,0.06,-0.06,0.00,L
5.514,255,255,255,0,255,-7.92,0.79,5.94,-0.01,0.01,-0.00,-8.86,-2.90,3.51,-0.03,-0.00,-0.02,-8.28,-2.15,5.40,0.01,0.02,-0.01,-5.38,-5.32,6.45,0.01,-0.00,0.00,-2.16,-3.45,8.94,-0.01,-0.00,0.00,-0.52,0.08,0.86,-0.12,0.06,-0.12,L
5.564,255,255,255,255,255,-7.92,0.83,6.00,-0.01,0.01,-0.01,-8.85,-2.97,3.57,-0.03,-0.00,-0.03,-8.20,-2.16,5.43,0.01,0.02,-0.01,-5.32,-5.32,6.47,0.01,-0.00,-0.00,-2.15,-3.51,8.92,-0.02,-0.01,0.01,-0.52,0.08,0.86,-0.06,-0.18,0.24,L
5.616,255,255,255,255,255,-7.91,0.77,5.97,-0.00,0.01,0.00,-8.78,-2.94,3.62,-0.03,-0.00,-0.02,-8.20,-2.23,5.37,0.01,0.02,-0.01,-5.38,-5.34,6.47,0.01,-0.00,0.01,-2.12,-3.46,8.97,-0.02,-0.01,0.00,-0.52,0.08,0.86,-0.18,0.06,0.00,L
5.667,255,255,255,255,255,-7.88,0.84,5.98,-0.01,0.01,0.00,-8.83,-2.92,3.54,-0.03,-0.00,-0.02,-8.18,-2.15,5.43,0.01,0.01,-0.01,-5.37,-5.30,6.43,0.00,0.00,0.00,-2.12,-3.47,8.91,-0.02,-0.01,0.00,-0.52,0.08,0.86,0.12,0.24,-0.06,L
5.718,127,255,255,255,255,-7.96,0.77,6.00,-0.00,0.01,-0.00,-8.92,-2.91,3.52,-0.03,-0.00,-0.02,-8.25,-2.18,5.38,0.01,0.02,-0.01,-5.41,-5.35,6.41,0.01,-0.00,0.00,-2.14,-3.48,8.96,-0.02,-0.01,0.01,-0.52,0.08,0.87,-0.24,-0.06,-0.12,L
5.773,255,255,255,0,255,-7.93,0.79,5.98,0.00,0.01,-0.00,-8.88,-2.91,3.56,-0.03,-0.00,-0.02,-8.22,-2.23,5.41,0.01,0.02,-0.01,-5.32,-5.33,6.47,0.00,-0.00,0.00,-2.07,-3.51,8.98,-0.01,-0.01,0.00,-0.52,0.08,0.87,0.12,0.18,0.18,L
5.823,255,255,255,255,255,-7.85,0.79,6.03,-0.01,0.01,-0.01,-8.80,-2.93,3.57,-0.02,-0.00,-0.02,-8.24,-2.18,5.40,0.01,0.02,-0.01,-5.38,-5.30,6.39,0.00,0.00,-0.00,-2.12,-3.47,9.03,-0.01,-0.00,0.00,-0.52,0.08,0.87,0.18,-0.06,-0.06,L
5.869,255,255,255,255,255,-7.89,0.79,5.98,-0.00,0.01,-0.01,-8.84,-2.89,3.53,-0.02,-0.00,-0.02,-8.21,-2.20,5.44,0.01,0.02,-0.01,-5.39,-5.34,6.44,0.01,-0.00,-0.01,-2.15,-3.46,8.92,-0.02,-0.01,0.00,-0.52,0.08,0.86,0.18,0.06,-0.12,L
5.926,255,255,255,0,255,-7.92,0.84,6.00,-0.01,0.00,-0.00,-8.84,-2.93,3.57,-0.03,-0.00,-0.02,-8.19,-2.19,5.37,0.01,0.02,-0.00,-5.41,-5.37,6.43,0.01,0.00,0.00,-2.15,-3.46,8.94,-0.02,-0.01,0.01,-0.52,0.08,0.86,-0.24,0.31,-0.12,L
5.973,255,255,255,255,255,-7.92,0.82,6.00,-0.01,0.02,0.01,-8.84,-2.94,3.55,-0.03,-0.01,-0.02,-8.18,-2.22,5.42,0.01,0.02,0.00,-5.44,-5.34,6.39,0.01,-0.00,0.00,-2.16,-3.44,8.98,-0.01,-0.00,0.01,-0.52,0.08,0.87,-0.18,0.06,0.00,L
6.026,255,255,255,255,255,-7.91,0.77,5.96,-0.00,0.01,-0.00,-8.92,-2.92,3.56,-0.03,0.00,-0.02,-8.26,-2.22,5.39,0.01,0.02,-0.01,-5.39,-5.38,6.45,0.01,0.00,0.00,-2.18,-3.42,8.88,-0.02,-0.01,0.01,-0.52,0.08,0.87,-0.18,0.06,0.00,L
6.075,255,255,255,255,255,-7.95,0.76,5.96,-0.01,0.01,0.00,-8.86,-2.90,3.49,-0.03,0.00,-0.02,-8.16,-2.15,5.42,0.01,0.01,-0.01,-5.32,-5.32,6.48,0.01,0.00,0.01,-2.13,-3.39,8.99,-0.01,-0.01,0.01,-0.52,0.08,0.86,-0.18,0.00,-0.12,L
6.124,255,255,255,0,255,-7.97,0.80,5.99,-0.01,-0.00,-0.00,-8.89,-2.94,3.59,-0.02,-0.01,-0.02,-8.18,-2.18,5.37,0.01,0.01,-0.01,-5.35,-5.32,6.41,0.01,-0.00,-0.00,-2.15,-3.52,8.93,-0.02,-0.01,0.00,-0.52,0.08,0.86,0.00,-0.24,0.06,L
6.176,255,255,255,255,255,-7.88,0.79,5.99,-0.01,0.00,-0.00,-8.84,-2.99,3.57,-0.03,-0.00,-0.02,-8.22,-2.20,5.41,0.01,0.01,-0.01,-5.37,-5.34,6.36,0.01,-0.00,0.01,-2.16,-3.45,8.97,-0.01,-0.01,0.01,-0.52,0.08,0.86,-0.12,-0.06,-0.06,L
6.234,255,255,255,255,255,-7.89,0.78,5.95,-0.01,0.00,0.00,-8.85,-2.96,3.55,-0.03,-0.00,-0.02,-8.23,-2.21,5.41,0.01,0.02,-0.00,-5.36,-5.28,6.40,0.01,-0.00,0.00,-2.15,-3.43,8.95,-0.01,-0.01,0.01,-0.52,0.08,0.87,-0.12,0.12,-0.06,L
6.277,0,255,255,0,255,-7.94,0.79,6.00,-0.00,0.01,-0.00,-8.84,-2.91,3.51,-0.02,0.00,-0.02,-8.28,-2.22,5.36,0.00,0.02,-0.01,-5.37,-5.35,6.40,0.00,-0.00,0.00,-2.15,-3.48,8.93,-0.02,-0.01,0.01,-0.52,0.08,0.87,0.00,0.06,-0.06,L
6.33,0,255,255,255,255,-7.86,0.82,6.00,-0.01,0.01,-0.00,-8.83,-2.94,3.54,-0.03,-0.00,-0.02,-8.23,-2.17,5.43,0.01,0.01,-0.01,-5.31,-5.34,6.45,0.01,-0.00,0.00,-2.07,-3.44,8.94,-0.02,-0.01,0.01,-0.52,0.08,0.86,-0.24,-0.06,0.00,L
6.38,255,255,255,0,255,-7.84,0.81,6.04,-0.01,0.01,-0.00,-8.79,-2.96,3.56,-0.04,-0.00,-0.02,-8.28,-2.19,5.43,0.01,0.01,-0.00,-5.32,-5.32,6.45,0.01,-0.00,0.01,-2.10,-3.48,8.99,-0.02,-0.01,0.01,-0.52,0.08,0.86,-0.49,0.06,-0.12,L
6.432,255,255,255,255,255,-7.88,0.80,5.97,-0.01,0.01,-0.00,-8.85,-2.97,3.55,-0.03,-0.01,-0.03,-8.20,-2.19,5.44,0.01,0.02,-0.01,-5.32,-5.32,6.46,0.01,-0.00,0.00,-2.08,-3.43,8.95,-0.01,-0.01,0.01,-0.52,0.08,0.86,0.00,0.12,-0.06,L
6.484,255,255,255,255,255,-7.89,0.84,5.99,-0.01,0.01,-0.01,-8.88,-2.92,3.56,-0.03,-0.00,-0.02,-8.27,-2.16,5.42,0.01,0.02,-0.00,-5.36,-5.37,6.42,0.00,-0.01,0.00,-2.08,-3.39,8.96,-0.02,-0.01,0.01,-0.52,0.08,0.86,-0.31,0.24,0.06,L
6.533,0,255,255,0,255,-7.86,0.84,6.03,-0.01,0.01,0.00,-8.91,-2.94,3.52,-0.03,0.00,-0.02,-8.24,-2.14,5.36,0.01,0.02,-0.01,-5.41,-5.33,6.43,-0.00,-0.00,0.00,-2.12,-3.45,8.97,-0.01,-0.00,0.01,-0.52,0.08,0.86,-0.31,0.31,0.12,L
6.585,255,255,255,0,255,-7.92,0.82,5.99,-0.01,0.01,-0.00,-8.83,-2.96,3.58,-0.03,-0.00,-0.02,-8.28,-2.23,5.42,0.01,0.02,-0.01,-5.41,-5.30,6.47,0.01,0.00,0.01,-2.07,-3.41,8.95,-0.01,-0.00,0.01,-0.52,0.08,0.86,-0.06,0.18,0.12,L
6.636,0,255,255,255,255,-7.86,0.81,6.02,-0.01,0.01,0.00,-8.82,-2.92,3.51,-0.03,-0.01,-0.02,-8.17,-2.18,5.38,0.01,0.01,-0.01,-5.36,-5.33,6.42,-0.00,-0.00,0.01,-2.15,-3.42,8.95,-0.01,-0.01,0.01,-0.52,0.08,0.86,-0.31,0.12,0.12,L
6.688,255,255,255,255,255,-7.88,0.79,6.02,-0.01,0.01,0.00,-8.83,-2.91,3.59,-0.03,-0.00,-0.01,-8.18,-2.22,5.44,0.01,0.01,0.00,-5.39,-5.31,6.44,-0.00,0.00,0.01,-2.11,-3.50,8.95,-0.01,-0.00,0.01,-0.52,0.08,0.87,-0.43,0.24,0.24,L
6.74,255,255,255,255,255,-7.92,0.82,5.96,-0.01,0.01,0.00,-8.85,-2.88,3.53,-0.03,-0.00,-0.02,-8.17,-2.18,5.40,0.01,0.02,0.00,-5.38,-5.32,6.45,0.01,0.00,0.01,-2.10,-3.45,8.95,-0.01,-0.00,0.01,-0.52,0.08,0.86,-0.43,0.37,0.00,L
6.789,255,255,255,255,255,-7.91,0.79,5.98,-0.01,0.01,0.00,-8.88,-2.95,3.56,-0.03,-0.00,-0.01,-8.20,-2.21,5.39,0.00,0.02,-0.01,-5.39,-5.40,6.43,-0.00,-0.01,0.00,-2.16,-3.44,9.00,-0.01,-0.00,0.01,-0.52,0.08,0.86,-0.37,0.12,0.18,L
6.84,255,255,255,255,255,-7.95,0.71,6.05,-0.01,0.01,0.00,-8.85,-2.95,3.56,-0.03,-0.00,-0.02,-8.19,-2.17,5.41,0.01,0.01,-0.01,-5.33,-5.35,6.42,0.01,0.00,0.00,-2.11,-3.40,8.96,-0.03,-0.01,0.00,-0.52,0.08,0.86,-0.12,0.06,0.12,L
6.89,255,255,255,255,255,-7.88,0.81,6.02,-0.01,0.01,-0.00,-8.84,-2.94,3.62,-0.03,-0.00,-0.02,-8.24,-2.21,5.45,0.01,0.02,-0.01,-5.35,-5.27,6.45,0.00,0.00,0.00,-2.12,-3.41,8.98,-0.01,-0.00,0.01,-0.52,0.08,0.86,-0.24,0.18,0.18,L
6.947,0,255,255,0,255,-7.87,0.79,5.97,-0.01,0.01,-0.00,-8.86,-2.91,3.62,-0.02,0.00,-0.02,-8.21,-2.24,5.39,0.00,0.02,-0.00,-5.45,-5.34,6.40,-0.00,-0.00,0.01,-2.17,-3.48,8.98,-0.02,-0.01,0.01,-0.52,0.08,0.87,-0.06,0.31,0.31,L
6.997,255,255,255,255,255,-7.92,0.81,5.95,-0.01,0.01,0.00,-8.87,-2.90,3.55,-0.04,-0.00,-0.02,-8.22,-2.22,5.34,0.00,0.01,-0.00,-5.35,-5.38,6.42,0.01,-0.00,0.00,-2.17,-3.51,8.97,-0.01,-0.00,0.01,-0.51,0.08,0.87,-0.31,0.37,0.31,L
7.044,255,255,255,255,255,-7.95,0.85,6.03,-0.01,0.01,0.00,-8.85,-2.91,3.61,-0.03,-0.00,-0.02,-8.26,-2.19,5.43,0.00,0.01,-0.01,-5.36,-5.29,6.40,0.01,-0.01,0.00,-2.14,-3.48,8.95,-0.02,-0.01,0.00,-0.52,0.08,0.87,-0.24,0.12,0.24,L
7.094,255,255,255,255,255,-7.88,0.81,6.01,-0.01,0.01,0.00,-8.82,-2.90,3.56,-0.03,-0.00,-0.01,-8.21,-2.17,5.44,0.01,0.02,-0.01,-5.39,-5.36,6.45,0.00,-0.00,0.01,-2.09,-3.48,8.97,-0.02,-0.01,0.01,-0.52,0.08,0.86,-0.43,0.24,0.24,L
7.146,0,255,255,255,255,-7.91,0.81,6.07,-0.01,0.01,-0.01,-8.85,-2.96,3.61,-0.03,-0.00,-0.01,-8.24,-2.19,5.40,0.01,0.01,-0.01,-5.38,-5.36,6.44,0.00,0.00,0.00,-2.13,-3.47,8.98,-0.02,-0.02,0.01,-0.52,0.08,0.86,-0.24,-0.06,0.24,L
7.195,255,255,255,255,255,-7.91,0.85,6.03,-0.01,0.01,0.00,-8.90,-2.93,3.53,-0.03,-0.00,-0.02,-8.21,-2.21,5.40,0.00,0.01,-0.01,-5.35,-5.39,6.45,0.01,0.00,0.01,-2.15,-3.48,8.95,-0.02,-0.01,-0.00,-0.52,0.08,0.87,-0.24,0.12,0.24,L
7.252,255,255,255,255,255,-7.96,0.79,5.96,-0.01,0.01,-0.00,-8.83,-2.88,3.54,-0.03,-0.01,-0.02,-8.24,-2.18,5.41,0.01,0.01,-0.01,-5.40,-5.32,6.42,0.01,-0.00,0.00,-2.16,-3.44,9.00,-0.02,-0.00,0.01,-0.52,0.08,0.87,-0.18,0.24,0.18,L
7.299,255,255,255,255,255,-7.92,0.75,5.98,-0.01,0.01,0.00,-8.90,-2.89,3.56,-0.03,-0.00,-0.02,-8.21,-2.17,5.42,0.01,0.02,-0.01,-5.44,-5.24,6.45,0.00,0.00,0.01,-2.13,-3.42,8.97,-0.01,-0.01,0.01,-0.52,0.08,0.87,-0.06,0.06,0.31,L
7.349,255,255,255,255,255,-7.89,0.84,6.00,-0.02,0.00,-0.00,-8.85,-2.94,3.51,-0.03,-0.01,-0.03,-8.30,-2.17,5.39,0.00,0.01,-0.01,-5.40,-5.34,6.44,0.00,-0.00,0.01,-2.13,-3.46,8.99,-0.02,-0.01,0.01,-0.52,0.08,0.86,-0.06,0.18,0.49,L
7.403,255,255,255,255,255,-7.85,0.79,5.96,-0.01,0.00,-0.01,-8.79,-2.93,3.60,-0.03,-0.00,-0.02,-8.17,-2.25,5.40,0.01,0.02,-0.00,-5.34,-5.31,6.42,0.01,-0.00,0.01,-2.15,-3.44,8.96,-0.01,-0.01,0.01,-0.52,0.08,0.86,-0.24,0.00,0.24,L
7.458,0,255,255,0,255,-7.92,0.78,6.01,-0.01,0.00,-0.00,-8.86,-2.91,3.59,-0.03,-0.01,-0.02,-8.21,-2.21,5.41,0.01,0.01,-0.01,-5.33,-5.38,6.46,-0.00,0.00,0.00,-2.16,-3.49,8.90,-0.02,-0.01,0.00,-0.52,0.08,0.87,-0.12,0.12,0.12,L
7.503,255,255,255,255,255,-7.87,0.77,5.99,-0.01,0.01,-0.00,-8.83,-2.91,3.61,-0.02,0.00,-0.02,-8.17,-2.21,5.39,0.01,0.02,-0.01,-5.37,-5.34,6.47,0.01,0.01,0.00,-2.10,-3.50,8.90,-0.02,-0.01,0.01,-0.52,0.08,0.87,0.06,0.18,-0.31,L
7.556,255,255,255,255,255,-7.92,0.84,5.94,0.01,0.01,-0.00,-8.85,-2.90,3.57,-0.02,0.00,-0.02,-8.24,-2.21,5.37,0.02,0.02,-0.01,-5.37,-5.33,6.47,0.01,0.00,0.00,-2.11,-3.37,9.01,-0.01,-0.00,0.00,-0.52,0.08,0.87,0.06,-0.24,-0.37,L
7.605,255,255,255,255,255,-7.92,0.84,6.03,-0.00,0.01,0.00,-8.85,-2.90,3.56,-0.03,0.00,-0.03,-8.18,-2.15,5.40,0.01,0.02,-0.01,-5.34,-5.30,6.45,0.01,-0.00,0.01,-2.15,-3.45,8.95,-0.02,-0.01,0.00,-0.52,0.08,0.86,0.06,0.00,0.00,L
7.655,255,255,255,0,255,-7.93,0.84,6.00,-0.01,0.01,0.00,-8.90,-2.95,3.57,-0.03,-0.00,-0.02,-8.27,-2.18,5.42,0.01,0.02,-0.00,-5.30,-5.30,6.50,0.00,-0.00,0.01,-2.11,-3.49,8.97,-0.02,-0.01,0.01,-0.52,0.08,0.86,-0.18,0.06,-0.06,L
7.707,255,255,255,255,255,-7.91,0.81,6.01,-0.00,0.01,0.00,-8.82,-2.90,3.59,-0.03,-0.00,-0.02,-8.22,-2.25,5.39,0.01,0.02,-0.01,-5.41,-5.35,6.42,0.00,-0.00,0.00,-2.17,-3.48,8.90,-0.01,-0.01,0.01,-0.52,0.08,0.86,0.06,0.00,-0.06,L
7.758,127,255,255,255,255,-7.95,0.80,5.99,-0.00,0.01,0.00,-8.83,-2.95,3.55,-0.02,-0.00,-0.02,-8.26,-2.15,5.38,0.01,0.01,-0.01,-5.40,-5.34,6.44,0.01,0.00,-0.00,-2.24,-3.47,8.93,-0.02,-0.01,0.00,-0.52,0.08,0.87,0.00,-0.06,-0.06,L
7.813,255,255,255,255,255,-7.88,0.78,5.94,-0.00,0.01,-0.00,-8.85,-2.91,3.56,-0.02,-0.00,-0.02,-8.26,-2.18,5.44,0.02,0.01,-0.01,-5.34,-5.32,6.40,0.01,0.00,-0.00,-2.22,-3.46,8.91,-0.02,-0.01,0.00,-0.52,0.08,0.87,0.00,-0.06,-0.18,L
7.862,255,255,255,255,255,-7.95,0.84,6.02,-0.00,0.01,0.00,-8.85,-2.93,3.54,-0.03,0.00,-0.02,-8.12,-2.15,5.38,0.01,0.01,-0.00,-5.34,-5.30,6.45,0.00,-0.00,-0.00,-2.13,-3.44,8.93,-0.02,-0.01,0.00,-0.52,0.08,0.86,0.00,-0.24,-0.06,L
7.914,255,255,255,0,255,-7.88,0.79,5.95,-0.00,0.01,0.00,-8.85,-2.94,3.53,-0.03,0.00,-0.02,-8.21,-2.16,5.39,0.02,0.02,-0.00,-5.33,-5.30,6.45,0.01,0.00,0.01,-2.13,-3.42,8.99,-0.02,-0.01,0.01,-0.52,0.08,0.87,-0.37,0.18,-0.37,L
7.966,255,255,255,255,255,-7.91,0.82,6.06,-0.01,0.01,-0.01,-8.90,-2.91,3.57,-0.03,0.01,-0.03,-8.16,-2.18,5.39,0.01,0.02,-0.01,-5.38,-5.34,6.45,0.00,0.01,0.00,-2.18,-3.48,8.94,-0.01,-0.00,0.00,-0.52,0.08,0.86,0.31,-0.06,0.00,L
8.014,255,255,255,255,255,-7.91,0.80,6.01,-0.01,0.01,-0.00,-8.82,-2.90,3.57,-0.03,-0.00,-0.02,-8.19,-2.13,5.40,0.01,0.02,-0.01,-5.35,-5.30,6.41,0.00,-0.00,0.01,-2.13,-3.46,8.98,-0.01,-0.00,0.00,-0.52,0.08,0.87,-0.18,0.12,-0.12,L
8.064,0,255,255,255,255,-7.88,0.82,6.02,-0.01,0.01,0.00,-8.81,-2.97,3.60,-0.03,-0.00,-0.03,-8.27,-2.26,5.43,0.01,0.02,-0.01,-5.40,-5.35,6.47,0.01,0.00,0.00,-2.16,-3.44,8.98,-0.02,-0.01,0.00,-0.52,0.08,0.86,0.31,-0.06,0.12,L
8.117,127,255,255,255,255,-7.89,0.79,6.01,-0.01,0.01,-0.00,-8.86,-2.89,3.57,-0.03,0.00,-0.02,-8.16,-2.18,5.40,0.01,0.02,-0.01,-5.31,-5.33,6.45,0.01,-0.00,-0.00,-2.07,-3.49,8.92,-0.02,-0.01,0.00,-0.52,0.08,0.86,0.12,-0.12,-0.12,L
8.174,255,255,255,255,255,-7.94,0.79,5.96,-0.01,0.01,0.00,-8.76,-2.94,3.55,-0.03,0.00,-0.02,-8.20,-2.18,5.41,0.01,0.02,-0.00,-5.37,-5.36,6.42,0.01,0.00,0.00,-2.16,-3.45,9.00,-0.01,-0.01,0.01,-0.52,0.08,0.87,-0.12,0.12,-0.24,L
8.218,255,255,255,255,255,-7.93,0.81,6.03,-0.00,0.01,0.00,-8.85,-2.89,3.57,-0.03,0.00,-0.02,-8.20,-2.20,5.39,0.01,0.02,-0.01,-5.39,-5.33,6.50,0.00,0.00,0.00,-2.19,-3.47,8.93,-0.02,-0.01,0.01,-0.52,0.08,0.86,-0.12,-0.06,-0.06,L
8.268,255,255,255,0,255,-7.94,0.83,5.97,-0.01,0.01,-0.00,-8.85,-2.90,3.55,-0.02,-0.00,-0.02,-8.26,-2.20,5.35,0.01,0.02,-0.01,-5.32,-5.35,6.47,0.01,0.00,0.01,-2.11,-3.47,8.97,-0.01,-0.01,0.01,-0.52,0.08,0.87,-0.24,0.00,-0.12,L
8.318,127,255,255,255,255,-7.86,0.84,6.01,0.00,0.01,0.00,-8.83,-2.92,3.57,-0.03,-0.01,-0.02,-8.23,-2.17,5.35,0.02,0.01,-0.00,-5.34,-5.30,6.45,0.01,-0.00,0.00,-2.12,-3.38,8.97,-0.01,-0.01,0.00,-0.52,0.08,0.87,-0.12,-0.06,-0.06,L
8.37,255,255,255,0,255,-7.89,0.80,5.97,-0.00,0.01,-0.00,-8.81,-2.91,3.62,-0.03,-0.01,-0.02,-8.22,-2.21,5.47,0.01,0.02,-0.01,-5.31,-5.32,6.42,0.01,-0.00,-0.00,-2.10,-3.45,8.92,-0.01,-0.01,-0.00,-0.52,0.08,0.86,-0.06,-0.24,-0.06,L
8.421,255,255,255,255,255,-7.87,0.81,5.97,-0.00,0.01,-0.00,-8.89,-2.89,3.61,-0.02,0.00,-0.02,-8.17,-2.19,5.37,0.01,0.02,-0.01,-5.29,-5.28,6.46,0.01,0.00,0.00,-2.12,-3.43,8.97,-0.01,-0.01,0.00,-0.52,0.08,0.86,0.00,0.18,-0.24,L
8.47,255,255,255,255,255,-7.86,0.81,6.05,-0.01,0.01,0.00,-8.93,-2.92,3.61,-0.03,-0.00,-0.02,-8.24,-2.18,5.36,0.01,0.02,-0.01,-5.33,-5.31,6.44,-0.00,0.00,0.00,-2.19,-3.48,8.95,-0.02,-0.01,0.01,-0.52,0.08,0.86,-0.12,0.00,0.12,L
8.529,0,255,255,255,255,-7.94,0.81,5.96,-0.01,0.01,0.00,-8.83,-2.89,3.59,-0.03,-0.00,-0.02,-8.23,-2.17,5.37,0.01,0.02,-0.01,-5.35,-5.34,6.40,-0.00,-0.00,0.00,-2.15,-3.49,8.93,-0.02,-0.01,0.00,-0.52,0.08,0.87,-0.12,0.00,-0.06,L
8.575,255,255,255,0,255,-7.96,0.80,6.03,-0.00,0.01,0.00,-8.88,-2.89,3.60,-0.02,-0.00,-0.02,-8.19,-2.22,5.49,0.01,0.02,-0.01,-5.36,-5.35,6.43,0.01,0.00,0.00,-2.15,-3.49,8.99,-0.02,-0.01,0.01,-0.52,0.08,0.86,-0.24,-0.12,-0.06,L
8.628,0,255,255,255,255,-7.88,0.81,5.98,-0.01,0.00,0.00,-8.82,-2.89,3.54,-0.02,-0.01,-0.02,-8.17,-2.16,5.38,0.01,0.02,-0.01,-5.36,-5.34,6.45,0.00,-0.00,0.00,-2.11,-3.51,8.94,-0.01,-0.00,0.01,-0.52,0.08,0.86,-0.06,0.12,0.18,L
8.681,255,255,255,0,255,-7.93,0.73,6.03,-0.01,0.01,0.00,-8.85,-2.94,3.55,-0.03,-0.00,-0.02,-8.28,-2.24,5.37,0.01,0.02,-0.00,-5.32,-5.29,6.43,0.01,-0.00,0.01,-2.12,-3.42,8.94,-0.01,-0.00,0.01,-0.52,0.08,0.86,-0.18,0.00,-0.12,L
8.738,255,255,255,0,255,-7.89,0.77,6.02,-0.00,0.01,-0.00,-8.88,-2.90,3.59,-0.03,0.00,-0.02,-8.23,-2.22,5.43,0.02,0.02,-0.01,-5.37,-5.32,6.45,0.00,-0.00,0.01,-2.14,-3.44,9.00,-0.02,-0.01,0.00,-0.52,0.08,0.86,-0.06,-0.06,-0.12,L
8.781,255,255,255,255,255,-7.91,0.83,6.02,-0.01,0.01,0.01,-8.90,-2.90,3.59,-0.03,0.00,-0.02,-8.21,-2.17,5.42,0.01,0.02,-0.00,-5.30,-5.24,6.50,0.00,0.00,0.01,-2.11,-3.40,8.95,-0.02,-0.01,0.01,-0.52,0.09,0.87,-0.18,0.06,0.06,L
8.832,255,255,255,0,255,-7.93,0.83,5.97,-0.01,0.01,-0.00,-8.89,-2.94,3.55,-0.02,-0.01,-0.02,-8.24,-2.15,5.37,0.01,0.01,-0.01,-5.44,-5.34,6.44,0.01,0.00,-0.00,-2.10,-3.46,8.96,-0.01,-0.01,0.01,-0.52,0.08,0.87,0.00,0.00,0.24,L
8.883,255,255,255,0,255,-7.86,0.82,6.03,-0.01,0.00,-0.00,-8.85,-2.87,3.60,-0.03,-0.00,-0.02,-8.13,-2.21,5.43,0.01,0.01,-0.01,-5.36,-5.31,6.46,0.01,-0.00,0.00,-2.05,-3.50,8.93,-0.01,-0.01,0.01,-0.52,0.08,0.86,-0.37,-0.18,-0.31,L
8.932,127,255,255,255,255,-7.87,0.81,5.99,-0.01,0.01,0.00,-8.82,-2.96,3.59,-0.03,-0.00,-0.01,-8.21,-2.18,5.40,0.01,0.02,-0.00,-5.40,-5.32,6.48,0.01,-0.00,0.01,-2.13,-3.48,8.97,-0.01,-0.01,0.01,-0.52,0.08,0.87,-0.43,0.12,-0.06,L
8.986,255,255,255,255,255,-7.97,0.79,5.99,-0.01,0.01,-0.00,-8.84,-2.91,3.51,-0.03,-0.00,-0.02,-8.19,-2.21,5.40,0.01,0.02,-0.01,-5.37,-5.30,6.40,0.00,-0.00,0.00,-2.18,-3.50,8.93,-0.01,-0.01,0.00,-0.52,0.08,0.86,-0.18,-0.12,-0.06,L
9.033,255,255,255,255,255,-7.98,0.78,5.97,0.00,0.01,0.00,-8.87,-2.93,3.54,-0.02,-0.00,-0.01,-8.27,-2.13,5.38,0.01,0.02,0.00,-5.35,-5.31,6.45,0.01,0.00,0.00,-2.17,-3.36,9.01,-0.02,-0.01,0.00,-0.52,0.08,0.86,-0.49,-0.31,-0.31,L
9.085,255,255,255,255,255,-7.92,0.78,5.95,-0.01,0.01,-0.01,-8.85,-2.91,3.54,-0.04,-0.01,-0.02,-8.16,-2.19,5.41,0.01,0.02,-0.01,-5.41,-5.35,6.40,-0.00,0.00,0.00,-2.10,-3.49,8.97,-0.01,-0.01,0.00,-0.52,0.08,0.86,-0.37,0.12,0.18,L
9.134,255,255,255,255,255,-7.85,0.81,6.02,-0.01,0.00,0.00,-8.80,-2.89,3.61,-0.03,-0.01,-0.02,-8.13,-2.13,5.42,0.01,0.02,-0.01,-5.33,-5.33,6.51,0.01,0.00,0.00,-2.06,-3.47,8.92,-0.01,-0.01,0.01,-0.52,0.08,0.86,-0.18,-0.18,0.00,L
9.184,255,255,255,255,255,-7.91,0.83,6.03,-0.00,0.01,0.00,-8.85,-2.96,3.57,-0.03,-0.00,-0.02,-8.24,-2.18,5.38,0.01,0.01,-0.01,-5.40,-5.31,6.43,-0.01,-0.00,0.00,-2.15,-3.50,8.94,-0.01,-0.01,0.01,-0.52,0.08,0.86,-0.18,-0.12,0.06,L
9.235,255,255,255,255,255,-7.92,0.79,5.95,-0.00,0.01,0.00,-8.95,-2.92,3.57,-0.03,0.00,-0.02,-8.22,-2.21,5.41,0.01,0.02,-0.00,-5.36,-5.37,6.43,0.01,-0.01,0.01,-2.10,-3.40,8.94,-0.01,-0.01,0.01,-0.52,0.08,0.86,-0.18,0.00,0.00,L
9.289,0,255,255,255,255,-7.87,0.84,5.93,-0.01,0.01,0.00,-8.91,-2.93,3.54,-0.03,-0.00,-0.03,-8.25,-2.23,5.38,0.01,0.01,-0.01,-5.39,-5.33,6.44,0.00,0.00,0.01,-2.11,-3.46,8.93,-0.01,-0.01,0.01,-0.52,0.08,0.87,-0.18,0.00,0.06,L
9.339,255,255,255,0,255,-7.89,0.81,6.00,-0.00,0.01,-0.00,-8.86,-2.88,3.57,-0.03,-0.01,-0.02,-8.21,-2.20,5.41,0.01,0.01,-0.01,-5.31,-5.33,6.44,0.01,-0.00,0.00,-2.15,-3.45,8.96,-0.02,-0.01,0.00,-0.52,0.08,0.86,-0.18,0.18,-0.12,L
9.389,255,255,255,0,255,-7.90,0.81,5.99,-0.01,0.01,0.00,-8.85,-2.91,3.59,-0.03,-0.00,-0.02,-8.25,-2.16,5.43,0.01,0.02,-0.00,-5.32,-5.29,6.44,0.00,0.00,0.01,-2.11,-3.39,8.98,-0.02,-0.01,0.01,-0.52,0.08,0.86,-0.31,0.12,0.00,L
9.449,0,255,255,255,255,-7.89,0.85,6.00,-0.01,0.01,0.00,-8.92,-2.94,3.58,-0.03,-0.00,-0.01,-8.23,-2.18,5.38,0.01,0.01,-0.00,-5.42,-5.26,6.44,0.00,0.00,0.00,-2.16,-3.45,9.01,-0.01,-0.01,0.01,-0.52,0.08,0.87,-0.37,0.00,0.00,L
9.492,255,255,255,255,255,-7.91,0.85,5.99,-0.00,0.01,-0.00,-8.80,-2.94,3.63,-0.03,-0.01,-0.02,-8.21,-2.15,5.44,0.01,0.02,-0.01,-5.32,-5.34,6.45,0.00,-0.00,0.01,-2.10,-3.43,9.01,-0.02,-0.01,0.01,-0.52,0.08,0.86,-0.55,0.24,0.06,L
9.544,255,255,255,255,255,-7.93,0.84,6.08,-0.01,0.02,0.01,-8.83,-2.94,3.57,-0.03,-0.01,-0.01,-8.22,-2.15,5.43,0.00,0.01,-0.01,-5.34,-5.24,6.45,0.01,0.00,0.01,-2.06,-3.39,8.97,-0.01,-0.00,0.01,-0.52,0.09,0.87,-0.55,0.06,0.12,L
9.596,255,255,255,255,255,-7.86,0.84,5.95,-0.01,0.01,-0.01,-8.83,-2.92,3.57,-0.03,-0.00,-0.02,-8.25,-2.15,5.42,0.01,0.02,-0.01,-5.34,-5.30,6.44,0.01,0.00,0.01,-2.09,-3.43,8.95,-0.01,-0.01,0.01,-0.52,0.08,0.86,-0.06,0.24,0.00,L
9.646,0,255,255,255,255,-7.89,0.74,5.98,-0.01,0.01,-0.01,-8.81,-2.90,3.57,-0.03,-0.01,-0.02,-8.15,-2.15,5.36,0.01,0.02,-0.01,-5.35,-5.37,6.45,0.01,-0.00,0.01,-2.13,-3.44,9.02,-0.00,-0.00,0.01,-0.52,0.08,0.86,-0.24,0.31,0.00,L
9.695,255,255,255,255,255,-7.91,0.81,6.02,-0.01,0.01,0.00,-8.89,-2.93,3.59,-0.03,-0.00,-0.02,-8.19,-2.13,5.41,0.00,0.02,-0.00,-5.41,-5.27,6.46,-0.00,-0.00,0.01,-2.22,-3.40,8.95,-0.02,-0.01,0.01,-0.52,0.08,0.87,-0.49,0.24,0.12,L
9.747,255,255,255,255,255,-7.91,0.85,6.05,-0.00,0.00,0.01,-8.87,-2.93,3.54,-0.02,-0.01,-0.01,-8.25,-2.18,5.40,0.01,0.01,-0.00,-5.35,-5.28,6.44,0.01,-0.01,0.01,-2.15,-3.46,9.05,-0.01,-0.00,0.01,-0.52,0.08,0.87,-0.43,0.12,0.00,L
9.799,255,255,255,255,255,-7.91,0.82,6.03,-0.01,0.01,0.00,-8.82,-2.91,3.57,-0.02,-0.00,-0.02,-8.24,-2.12,5.40,0.00,0.02,-0.01,-5.34,-5.30,6.51,0.01,0.00,0.01,-2.14,-3.40,8.96,-0.01,-0.01,0.01,-0.52,0.08,0.86,-0.55,0.00,0.00,L
9.851,255,255,255,255,255,-7.87,0.80,5.95,-0.01,0.01,0.00,-8.81,-2.90,3.58,-0.03,-0.01,-0.02,-8.18,-2.15,5.43,0.01,0.01,-0.01,-5.31,-5.29,6.48,0.01,-0.01,0.00,-2.07,-3.43,8.98,-0.02,-0.00,0.01,-0.52,0.09,0.86,-0.18,0.06,0.18,L
9.903,255,255,255,255,255,-7.82,0.87,6.03,-0.01,0.01,0.01,-8.85,-2.87,3.59,-0.03,-0.01,-0.02,-8.19,-2.18,5.39,0.00,0.02,-0.01,-5.39,-5.33,6.47,0.00,0.00,0.01,-2.11,-3.45,9.00,-0.01,-0.01,0.01,-0.52,0.08,0.87,-0.31,0.12,0.12,L
9.954,255,255,255,255,255,-7.90,0.81,5.98,-0.01,0.01,0.00,-8.84,-2.86,3.57,-0.03,-0.01,-0.02,-8.23,-2.22,5.38,0.01,0.01,-0.01,-5.40,-5.26,6.44,0.00,-0.00,0.01,-2.14,-3.46,8.94,-0.02,-0.00,0.00,-0.52,0.08,0.86,-0.24,0.12,0.06,L
10.003,255,255,255,255,255,-7.98,0.84,5.99,-0.01,0.01,-0.00,-8.87,-2.88,3.59,-0.03,-0.00,-0.02,-8.21,-2.15,5.41,0.00,0.02,-0.00,-5.33,-5.23,6.42,0.00,-0.00,0.01,-2.11,-3.40,8.99,-0.01,-0.01,0.01,-0.52,0.08,0.87,-0.18,0.24,0.24,L
10.052,255,255,255,0,255,-7.91,0.81,5.96,-0.00,0.00,0.00,-8.85,-2.90,3.54,-0.03,-0.00,-0.02,-8.27,-2.13,5.35,0.01,0.01,-0.01,-5.39,-5.27,6.44,0.01,-0.00,0.00,-2.15,-3.44,8.95,-0.02,-0.01,0.01,-0.52,0.08,0.87,-0.31,-0.06,0.18,L
10.107,255,255,255,255,255,-7.84,0.87,5.99,-0.01,0.01,0.00,-8.86,-2.86,3.58,-0.03,-0.00,-0.02,-8.17,-2.19,5.44,0.01,0.01,-0.01,-5.36,-5.35,6.44,0.01,-0.00,0.01,-2.14,-3.44,8.98,-0.01,-0.01,0.01,-0.52,0.08,0.86,-0.49,0.12,0.12,L
10.157,255,255,255,255,255,-7.86,0.79,6.05,-0.01,0.01,0.00,-8.92,-2.83,3.62,-0.03,0.00,-0.02,-8.23,-2.20,5.41,0.01,0.02,-0.01,-5.29,-5.29,6.47,0.01,-0.00,0.01,-2.06,-3.48,8.91,-0.02,-0.01,0.01,-0.52,0.09,0.86,-0.18,0.12,0.18,L
10.208,255,255,255,255,255,-7.87,0.80,5.98,-0.01,0.01,-0.00,-8.85,-2.88,3.56,-0.03,-0.01,-0.02,-8.29,-2.19,5.40,0.01,0.02,-0.01,-5.34,-5.35,6.49,0.00,0.00,0.00,-2.21,-3.44,8.92,-0.01,-0.00,0.01,-0.52,0.08,0.87,-0.12,0.24,0.06,L
10.269,255,255,255,255,255,-7.83,1.95,6.33,-0.12,0.04,-0.02,-8.69,-3.03,3.62,0.02,-0.01,0.06,-8.08,-2.40,5.20,-0.04,0.02,-0.03,-5.28,-5.63,6.17,0.01,-0.00,-0.00,-2.09,-3.38,8.97,0.01,-0.01,0.00,-0.52,0.09,0.86,-0.24,0.18,0.37,L
10.313,255,255,255,255,255,-7.92,0.85,6.06,-0.01,0.03,-0.01,-8.83,-2.91,3.54,-0.02,-0.01,-0.02,-8.23,-2.17,5.45,0.02,0.02,-0.01,-5.48,-5.22,6.53,0.04,0.00,0.01,-2.04,-3.44,8.98,-0.05,-0.01,-0.00,-0.52,0.09,0.87,0.12,0.37,0.18,L
10.36,255,255,255,255,255,-7.82,0.81,5.94,-0.01,0.00,-0.00,-8.81,-2.82,3.56,-0.04,-0.00,-0.03,-8.24,-2.12,5.40,0.00,0.02,-0.01,-5.40,-5.35,6.45,-0.02,0.00,0.01,-2.21,-3.45,8.98,-0.01,-0.01,0.01,-0.52,0.08,0.86,0.18,0.37,0.49,L
10.415,255,255,255,255,255,-7.89,0.76,5.98,-0.01,-0.00,0.00,-8.83,-2.90,3.58,-0.03,-0.01,-0.02,-8.17,-2.15,5.35,0.01,0.01,-0.01,-5.39,-5.28,6.47,0.00,-0.00,0.01,-2.14,-3.42,8.93,-0.01,-0.01,0.01,-0.52,0.09,0.87,-0.49,0.06,0.06,L
10.463,255,255,255,255,255,-7.97,0.80,5.99,-0.00,0.01,0.00,-8.87,-2.91,3.62,-0.03,-0.00,-0.02,-8.23,-2.18,5.41,0.00,0.02,-0.00,-5.30,-5.32,6.48,0.00,-0.00,0.01,-2.09,-3.43,8.95,-0.01,-0.00,0.01,-0.52,0.08,0.86,-0.31,0.18,0.18,L
10.512,255,255,255,255,255,-7.91,0.81,5.97,-0.01,0.01,0.01,-8.87,-2.83,3.58,-0.02,-0.00,-0.02,-8.20,-2.18,5.37,0.01,0.02,-0.01,-5.36,-5.28,6.40,0.02,-0.01,0.00,-2.13,-3.39,8.96,-0.01,-0.01,0.00,-0.52,0.08,0.86,-0.18,0.12,-0.43,L
10.563,255,255,255,0,255,-7.89,0.75,5.97,0.00,0.01,0.00,-8.91,-2.83,3.64,-0.03,0.00,-0.02,-8.25,-2.15,5.38,0.01,0.02,-0.01,-5.35,-5.32,6.47,0.00,-0.00,-0.00,-2.10,-3.47,9.03,-0.02,-0.00,0.00,-0.52,0.09,0.87,0.06,0.06,-0.24,L
10.612,255,255,255,255,255,-7.89,0.80,5.96,-0.00,0.01,0.00,-8.94,-2.86,3.58,-0.03,-0.00,-0.03,-8.23,-2.12,5.35,0.01,0.02,-0.01,-5.45,-5.27,6.49,0.01,0.00,0.00,-2.15,-3.42,8.96,-0.01,-0.01,0.00,-0.52,0.09,0.86,-0.24,0.00,-0.24,L
10.666,255,255,255,255,255,-7.93,0.85,6.03,-0.01,0.01,-0.00,-8.86,-2.93,3.58,-0.03,-0.01,-0.03,-8.21,-2.13,5.41,0.01,0.01,-0.01,-5.35,-5.29,6.49,0.01,0.00,0.00,-2.04,-3.39,8.95,-0.01,-0.01,0.00,-0.52,0.08,0.86,0.00,-0.06,0.00,L
10.715,255,255,255,255,255,-7.92,0.79,6.03,-0.01,0.01,-0.00,-8.83,-2.89,3.61,-0.03,0.00,-0.01,-8.26,-2.15,5.42,0.02,0.02,-0.00,-5.38,-5.27,6.46,0.01,0.00,0.00,-2.15,-3.45,8.99,-0.02,-0.01,0.01,-0.52,0.09,0.86,-0.18,0.00,-0.12,L
10.769,255,255,255,255,255,-7.90,0.81,5.97,-0.00,0.01,-0.00,-8.90,-2.84,3.55,-0.03,0.01,-0.02,-8.26,-2.18,5.37,0.02,0.02,-0.01,-5.40,-5.32,6.45,0.01,0.00,0.00,-2.12,-3.40,8.97,-0.01,-0.01,-0.00,-0.52,0.08,0.87,0.12,0.06,-0.18,L
10.82,255,255,255,255,255,-7.89,0.79,5.97,-0.00,0.01,-0.00,-8.87,-2.86,3.58,-0.02,-0.00,-0.03,-8.18,-2.19,5.39,0.02,0.02,-0.01,-5.40,-5.29,6.45,0.01,-0.00,0.00,-2.09,-3.41,9.01,-0.02,-0.01,0.00,-0.52,0.09,0.86,-0.18,0.06,-0.18,L
10.87,255,255,255,255,255,-7.86,0.81,6.00,-0.01,0.01,-0.00,-8.91,-2.84,3.62,-0.02,0.00,-0.02,-8.23,-2.18,5.44,0.01,0.02,-0.01,-5.35,-5.32,6.42,0.01,0.00,0.00,-2.08,-3.44,8.94,-0.01,-0.00,0.00,-0.52,0.09,0.86,0.00,-0.06,-0.12,L
10.921,255,255,255,0,255,-7.90,0.78,6.01,-0.00,0.00,-0.00,-8.85,-2.86,3.61,-0.03,-0.00,-0.02,-8.21,-2.16,5.35,0.01,0.01,-0.00,-5.38,-5.26,6.45,0.01,0.00,0.01,-2.03,-3.39,8.97,-0.01,-0.01,0.01,-0.52,0.09,0.86,-0.37,0.06,-0.37,L
10.972,255,255,255,255,255,-7.89,0.83,5.99,-0.00,0.01,-0.00,-8.83,-2.81,3.56,-0.03,-0.00,-0.02,-8.25,-2.14,5.43,0.01,0.01,-0.01,-5.31,-5.29,6.44,0.00,0.00,-0.00,-2.12,-3.40,8.95,-0.03,-0.01,0.00,-0.52,0.09,0.87,0.12,0.00,-0.06,L
11.021,255,255,255,255,255,-7.85,0.78,6.01,-0.00,0.01,-0.00,-8.87,-2.87,3.57,-0.03,-0.00,-0.02,-8.22,-2.20,5.42,0.01,0.01,-0.01,-5.45,-5.21,6.48,0.00,-0.00,0.00,-2.15,-3.37,9.02,-0.02,-0.01,0.00,-0.52,0.08,0.86,-0.24,-0.24,-0.18,L
11.074,255,255,255,255,255,-7.97,0.81,5.98,-0.00,0.01,0.00,-8.86,-2.80,3.53,-0.03,-0.00,-0.02,-8.21,-2.12,5.41,0.01,0.02,-0.00,-5.41,-5.29,6.48,0.01,-0.00,0.00,-2.08,-3.48,8.99,-0.01,-0.01,0.01,-0.52,0.09,0.87,-0.18,0.00,0.00,L
11.125,255,255,255,255,255,-7.90,0.80,6.03,-0.01,0.01,-0.00,-8.83,-2.79,3.59,-0.03,-0.01,-0.03,-8.16,-2.17,5.41,0.01,0.01,-0.01,-5.36,-5.24,6.46,0.00,0.00,-0.00,-2.10,-3.40,9.05,-0.01,-0.00,0.01,-0.52,0.09,0.86,0.31,-0.06,0.00,L
11.173,255,255,255,255,255,-7.87,0.80,5.96,-0.01,0.01,-0.00,-8.86,-2.84,3.60,-0.03,0.00,-0.02,-8.21,-2.21,5.38,0.02,0.02,-0.01,-5.43,-5.26,6.49,0.01,0.00,-0.00,-2.13,-3.43,8.97,-0.01,-0.01,0.00,-0.52,0.09,0.86,0.00,0.00,-0.18,L
11.227,255,255,255,255,255,-7.88,0.86,5.99,-0.00,0.01,-0.00,-8.84,-2.84,3.60,-0.03,0.00,-0.01,-8.24,-2.19,5.39,0.02,0.02,-0.00,-5.39,-5.29,6.46,0.01,-0.00,0.00,-2.06,-3.40,9.01,-0.02,-0.01,0.00,-0.52,0.09,0.86,-0.31,0.18,-0.18,L
11.276,255,255,255,0,255,-7.94,0.77,5.94,-0.01,0.01,-0.00,-8.84,-2.86,3.59,-0.02,-0.01,-0.02,-8.20,-2.22,5.41,0.01,0.01,0.00,-5.37,-5.31,6.47,0.00,-0.00,0.01,-2.11,-3.40,8.95,-0.02,-0.01,0.01,-0.52,0.08,0.87,-0.31,-0.24,-0.18,L
11.328,255,255,255,255,255,-7.90,0.82,6.00,0.00,0.01,0.00,-8.93,-2.83,3.58,-0.03,0.00,-0.02,-8.25,-2.13,5.37,0.01,0.02,-0.01,-5.40,-5.29,6.46,0.01,0.00,0.01,-2.17,-3.40,9.03,-0.02,-0.01,0.00,-0.52,0.09,0.86,-0.24,-0.12,-0.31,L
11.378,255,255,255,255,255,-7.98,0.79,5.98,0.00,0.01,-0.01,-8.88,-2.83,3.56,-0.03,0.00,-0.03,-8.18,-2.09,5.41,0.01,0.02,-0.01,-5.35,-5.25,6.47,0.00,-0.00,-0.00,-2.08,-3.45,8.95,-0.02,-0.01,0.01,-0.52,0.09,0.86,0.12,-0.06,0.00,L
11.431,255,255,255,255,255,-7.90,0.86,6.01,-0.01,0.01,-0.00,-8.80,-2.81,3.55,-0.03,-0.00,-0.02,-8.26,-2.12,5.44,0.01,0.01,-0.01,-5.35,-5.28,6.41,0.00,0.00,0.00,-2.09,-3.41,9.02,-0.01,-0.01,0.00,-0.52,0.09,0.86,-0.06,0.06,0.12,L
11.482,255,255,255,0,255,-7.92,0.77,6.00,-0.01,0.01,-0.00,-8.92,-2.86,3.60,-0.03,-0.00,-0.02,-8.21,-2.15,5.40,0.01,0.02,-0.01,-5.37,-5.24,6.46,0.00,0.00,0.01,-2.11,-3.35,8.91,-0.01,-0.01,0.00,-0.52,0.09,0.86,0.00,0.06,0.00,L
11.533,255,255,255,0,255,-7.96,0.82,6.01,-0.01,0.01,-0.00,-8.93,-2.87,3.60,-0.03,-0.00,-0.02,-8.24,-2.19,5.43,0.01,0.02,-0.01,-5.44,-5.30,6.49,0.01,0.00,0.00,-2.13,-3.40,8.95,-0.02,-0.00,0.00,-0.52,0.09,0.87,0.06,0.06,0.00,L
11.586,255,255,255,255,255,-7.85,0.85,6.00,-0.01,0.01,-0.00,-8.86,-2.86,3.59,-0.03,-0.00,-0.02,-8.21,-2.11,5.38,0.02,0.02,-0.01,-5.39,-5.26,6.46,0.01,-0.00,-0.00,-2.09,-3.39,8.95,-0.02,-0.01,0.00,-0.52,0.08,0.86,-0.06,-0.31,0.00,L
11.635,255,255,255,255,255,-7.97,0.82,6.01,-0.01,0.00,-0.00,-8.83,-2.85,3.60,-0.03,-0.01,-0.02,-8.25,-2.16,5.43,0.01,0.01,-0.00,-5.34,-5.29,6.46,0.01,-0.00,0.00,-2.10,-3.39,8.99,-0.02,-0.00,0.01,-0.52,0.09,0.86,-0.24,0.00,0.00,L
11.686,255,255,255,0,255,-7.87,0.79,5.98,-0.01,0.01,-0.00,-8.88,-2.81,3.59,-0.03,-0.01,-0.03,-8.19,-2.07,5.47,0.01,0.02,-0.01,-5.36,-5.23,6.46,0.01,0.00,0.00,-2.13,-3.44,8.92,-0.01,-0.00,0.01,-0.52,0.09,0.86,-0.06,-0.24,0.00,L
11.738,255,255,255,255,255,-7.89,0.87,5.94,-0.00,0.01,0.00,-8.88,-2.83,3.56,-0.03,-0.00,-0.03,-8.18,-2.15,5.43,0.01,0.01,-0.00,-5.40,-5.32,6.52,0.01,-0.00,0.01,-2.10,-3.41,9.01,-0.01,-0.01,0.01,-0.52,0.09,0.86,-0.31,0.18,-0.06,L
11.79,255,255,255,255,255,-7.90,0.84,5.96,-0.00,0.01,0.00,-8.86,-2.84,3.56,-0.02,-0.00,-0.02,-8.24,-2.12,5.42,0.01,0.02,-0.01,-5.36,-5.27,6.46,-0.00,-0.00,0.00,-2.13,-3.45,9.02,-0.02,-0.00,0.00,-0.52,0.09,0.86,0.06,0.06,0.00,L
11.841,255,255,255,255,255,-7.96,0.79,6.00,-0.00,0.00,0.00,-8.88,-2.85,3.57,-0.03,-0.00,-0.02,-8.18,-2.14,5.45,0.01,0.01,-0.01,-5.34,-5.21,6.51,0.01,-0.00,0.01,-2.10,-3.40,8.99,-0.02,-0.01,0.01,-0.52,0.09,0.86,-0.43,-0.24,-0.18,L
11.887,255,255,255,255,255,-7.91,0.89,6.01,-0.00,0.01,0.00,-8.88,-2.81,3.62,-0.03,-0.00,-0.02,-8.25,-2.14,5.47,-0.00,0.02,-0.01,-5.41,-5.28,6.42,0.00,0.00,0.00,-2.04,-3.45,8.99,-0.01,-0.01,0.01,-0.52,0.09,0.86,0.00,0.06,0.37,L
11.94,255,255,255,0,255,-7.95,0.81,5.98,-0.01,0.01,-0.01,-8.83,-2.84,3.60,-0.04,-0.00,-0.02,-8.24,-2.11,5.41,0.01,0.02,-0.01,-5.35,-5.29,6.47,0.01,0.00,0.00,-2.08,-3.41,9.02,-0.01,-0.01,0.00,-0.52,0.09,0.87,-0.18,0.00,-0.12,L
11.988,255,255,255,0,255,-7.85,0.87,5.99,0.00,0.01,-0.00,-8.86,-2.82,3.58,-0.03,-0.01,-0.02,-8.26,-2.14,5.43,0.01,0.02,-0.01,-5.32,-5.29,6.40,0.00,-0.00,0.01,-2.06,-3.42,8.99,-0.01,-0.01,0.00,-0.52,0.09,0.86,-0.18,0.06,-0.18,L
12.044,255,255,255,255,255,-7.92,0.83,5.98,-0.01,0.01,-0.00,-8.86,-2.88,3.64,-0.03,-0.00,-0.02,-8.20,-2.15,5.38,0.01,0.02,-0.01,-5.37,-5.31,6.48,0.01,-0.00,0.01,-2.15,-3.39,9.02,-0.01,-0.01,0.00,-0.52,0.08,0.87,-0.37,0.18,0.06,L
12.092,255,255,255,0,255,-7.95,0.81,5.98,-0.00,0.01,0.01,-8.83,-2.87,3.61,-0.03,-0.00,-0.02,-8.25,-2.12,5.40,0.01,0.02,-0.00,-5.38,-5.32,6.44,0.01,0.00,0.01,-2.15,-3.38,8.98,-0.01,-0.00,0.00,-0.52,0.09,0.86,-0.43,0.12,-0.31,L
12.143,255,255,255,0,255,-7.90,0.84,5.98,-0.00,0.01,0.00,-8.87,-2.81,3.57,-0.03,0.00,-0.02,-8.24,-2.15,5.39,0.01,0.02,-0.01,-5.33,-5.27,6.48,0.01,-0.00,0.00,-2.16,-3.36,8.94,-0.01,-0.01,0.01,-0.52,0.09,0.86,-0.31,-0.06,-0.06,L
12.195,255,255,255,255,255,-7.91,0.82,5.95,-0.01,0.01,0.00,-8.88,-2.85,3.60,-0.03,-0.00,-0.02,-8.18,-2.15,5.41,0.01,0.02,-0.01,-5.35,-5.28,6.53,0.00,-0.00,0.01,-2.09,-3.36,9.04,-0.01,-0.01,0.01,-0.52,0.09,0.86,-0.49,0.18,0.06,L
12.246,255,255,255,255,255,-7.93,0.91,5.99,-0.01,0.01,0.00,-8.91,-2.80,3.56,-0.03,-0.01,-0.02,-8.19,-2.15,5.43,0.01,0.01,-0.00,-5.37,-5.24,6.50,0.00,-0.00,0.01,-2.05,-3.37,9.02,-0.01,-0.01,0.01,-0.52,0.09,0.86,-0.18,0.00,0.18,L
12.297,255,255,255,255,255,-7.89,0.80,6.02,-0.01,0.01,0.00,-8.86,-2.84,3.60,-0.03,-0.00,-0.02,-8.18,-2.13,5.44,0.01,0.01,-0.01,-5.38,-5.33,6.48,0.01,-0.01,0.01,-2.09,-3.44,9.03,-0.02,-0.01,0.00,-0.52,0.09,0.86,-0.31,0.24,0.06,L
12.349,255,255,255,0,255,-7.95,0.87,6.02,-0.01,0.01,0.00,-8.89,-2.85,3.60,-0.03,0.00,-0.03,-8.30,-2.10,5.36,0.01,0.02,-0.01,-5.43,-5.27,6.47,0.01,-0.00,0.01,-2.11,-3.42,9.01,-0.01,-0.00,0.01,-0.52,0.09,0.87,-0.18,0.18,0.00,L
12.399,255,255,255,255,255,-7.91,0.87,5.91,-0.01,0.01,0.00,-8.85,-2.89,3.59,-0.03,0.00,-0.02,-8.24,-2.16,5.43,0.01,0.02,-0.01,-5.40,-5.29,6.50,-0.00,-0.00,0.00,-2.09,-3.39,8.98,-0.01,-0.01,0.01,-0.52,0.09,0.86,-0.31,-0.06,0.18,L
12.452,255,255,255,255,255,-7.90,0.87,5.96,-0.00,0.01,0.01,-8.83,-2.87,3.61,-0.02,-0.00,-0.01,-8.22,-2.15,5.43,0.01,0.02,-0.01,-5.32,-5.26,6.45,0.01,-0.01,0.01,-2.14,-3.37,8.94,-0.02,-0.00,0.01,-0.52,0.09,0.86,-0.43,0.24,0.06,L
12.502,255,255,255,255,255,-7.88,0.87,6.03,-0.01,0.00,0.00,-8.84,-2.84,3.57,-0.04,-0.00,-0.02,-8.22,-2.14,5.44,0.00,0.02,-0.00,-5.36,-5.25,6.51,0.00,-0.00,0.01,-2.11,-3.40,8.98,-0.01,-0.01,0.01,-0.52,0.09,0.86,-0.55,0.18,0.12,L
12.553,255,255,255,255,255,-7.92,0.81,5.98,-0.01,0.00,0.00,-8.90,-2.87,3.61,-0.02,-0.00,-0.02,-8.24,-2.14,5.41,0.01,0.02,-0.01,-5.43,-5.27,6.50,0.00,-0.01,0.01,-2.06,-3.38,9.00,-0.02,-0.01,0.01,-0.52,0.09,0.86,-0.18,0.24,0.00,L
12.605,255,255,255,255,255,-7.94,0.84,5.98,-0.00,0.00,0.00,-8.89,-2.87,3.59,-0.03,-0.00,-0.02,-8.22,-2.12,5.39,0.01,0.01,-0.01,-5.40,-5.26,6.45,0.00,-0.00,0.00,-2.12,-3.47,8.97,-0.02,-0.00,0.00,-0.52,0.09,0.86,-0.12,0.06,0.18,L
12.656,255,255,255,255,255,-7.88,0.83,5.97,-0.00,0.01,-0.00,-8.84,-2.81,3.62,-0.03,-0.00,-0.02,-8.21,-2.15,5.36,0.01,0.02,-0.01,-5.36,-5.26,6.49,0.01,-0.01,0.01,-2.10,-3.43,8.95,-0.01,-0.01,0.01,-0.52,0.09,0.86,-0.37,0.00,0.24,L
12.708,255,255,255,255,255,-7.96,0.85,6.01,-0.01,0.01,0.00,-8.90,-2.77,3.63,-0.03,0.00,-0.02,-8.30,-2.08,5.48,0.01,0.02,-0.01,-5.38,-5.24,6.45,0.00,0.00,0.01,-2.02,-3.43,9.04,-0.00,-0.00,0.01,-0.52,0.09,0.86,-0.31,0.06,0.31,L
12.757,255,255,255,0,255,-7.91,0.84,6.00,-0.01,0.01,-0.01,-8.89,-2.82,3.56,-0.03,-0.00,-0.03,-8.21,-2.14,5.40,0.00,0.01,-0.01,-5.33,-5.30,6.44,0.01,0.00,-0.00,-2.09,-3.46,8.98,-0.01,-0.00,0.00,-0.52,0.09,0.86,0.12,0.00,0.12,L
12.81,255,255,255,255,255,-7.92,0.86,6.01,-0.01,-0.00,-0.00,-8.84,-2.81,3.56,-0.03,-0.01,-0.02,-8.22,-2.15,5.41,0.01,0.01,-0.01,-5.38,-5.24,6.49,0.01,0.00,0.01,-2.10,-3.40,8.94,-0.02,-0.01,0.01,-0.52,0.09,0.86,-0.24,0.31,0.12,L
12.858,255,255,255,255,255,-7.91,0.84,6.02,-0.01,0.00,0.01,-8.92,-2.85,3.60,-0.03,-0.00,-0.02,-8.23,-2.15,5.36,0.01,0.02,-0.01,-5.34,-5.26,6.45,-0.00,-0.00,0.01,-2.13,-3.45,8.97,-0.02,-0.01,0.01,-0.52,0.09,0.86,-0.43,0.18,0.12,L
12.911,255,255,255,0,255,-7.92,0.81,6.00,-0.01,0.01,0.01,-8.89,-2.80,3.56,-0.04,-0.01,-0.01,-8.26,-2.11,5.41,0.00,0.02,-0.01,-5.39,-5.23,6.46,0.01,-0.01,0.01,-2.13,-3.35,8.95,-0.02,-0.00,0.01,-0.52,0.09,0.87,-0.55,0.06,0.12,L
12.959,255,255,255,255,255,-7.89,0.81,5.99,-0.01,0.01,0.00,-8.92,-2.84,3.61,-0.02,0.00,-0.02,-8.28,-2.16,5.35,0.01,0.02,-0.01,-5.43,-5.26,6.45,0.01,-0.00,0.00,-2.10,-3.39,8.97,-0.01,-0.01,0.00,-0.52,0.09,0.86,-0.43,-0.06,-0.18,L
13.009,255,255,255,255,255,-7.86,0.85,6.00,-0.00,0.01,0.01,-8.87,-2.83,3.57,-0.03,0.00,-0.02,-8.21,-2.13,5.49,0.01,0.02,-0.01,-5.39,-5.24,6.49,0.00,0.00,0.00,-2.07,-3.38,9.01,-0.01,-0.01,0.00,-0.52,0.09,0.86,-0.43,0.18,0.12,L
13.061,255,255,255,255,255,-7.91,0.81,6.04,-0.01,0.01,0.00,-8.88,-2.81,3.59,-0.02,-0.01,-0.02,-8.19,-2.10,5.40,0.01,0.01,-0.01,-5.34,-5.26,6.48,0.00,-0.00,-0.00,-2.11,-3.39,8.97,-0.01,-0.01,0.01,-0.52,0.09,0.86,-0.18,0.06,0.00,L
13.113,255,255,255,255,255,-7.90,0.85,6.00,-0.01,0.01,0.00,-8.85,-2.84,3.61,-0.03,-0.00,-0.02,-8.26,-2.21,5.43,0.01,0.02,0.00,-5.38,-5.21,6.48,0.01,0.00,0.01,-2.12,-3.40,8.99,-0.01,-0.01,0.00,-0.52,0.09,0.86,-0.43,0.00,-0.06,L
13.166,255,255,255,255,255,-7.89,0.84,5.97,-0.01,0.02,0.00,-8.82,-2.84,3.62,-0.03,-0.00,-0.02,-8.21,-2.11,5.38,0.02,0.02,0.00,-5.42,-5.28,6.47,0.01,0.00,-0.00,-2.12,-3.38,9.00,-0.03,-0.01,-0.00,-0.52,0.09,0.87,-0.18,-0.06,-0.24,L
13.221,255,255,255,255,255,-7.91,0.89,5.94,0.01,0.01,0.00,-8.88,-2.82,3.59,-0.03,0.00,-0.02,-8.18,-2.11,5.42,0.02,0.02,-0.00,-5.35,-5.24,6.48,0.02,-0.00,0.01,-2.03,-3.39,9.02,-0.01,-0.01,0.01,-0.52,0.09,0.86,-0.31,-0.06,-0.24,L
13.268,255,255,255,255,255,-7.90,0.87,5.99,-0.01,0.01,0.00,-8.86,-2.80,3.64,-0.03,0.00,-0.02,-8.21,-2.15,5.44,0.01,0.02,-0.01,-5.37,-5.29,6.51,0.01,-0.00,0.00,-2.15,-3.47,9.02,-0.01,-0.01,0.01,-0.52,0.09,0.86,-0.18,0.00,-0.12,L
13.316,255,255,255,255,255,-7.92,0.84,6.00,-0.00,0.00,0.00,-8.86,-2.84,3.61,-0.02,-0.00,-0.02,-8.12,-2.15,5.45,0.02,0.02,-0.01,-5.36,-5.16,6.46,0.02,-0.00,0.00,-2.11,-3.37,8.96,-0.00,-0.01,0.01,-0.52,0.09,0.86,-0.31,0.06,-0.31,L
13.365,255,255,255,255,255,-7.89,0.87,5.97,-0.00,0.01,0.00,-8.85,-2.82,3.60,-0.02,0.00,-0.02,-8.23,-2.20,5.41,0.01,0.02,-0.01,-5.33,-5.23,6.42,0.01,-0.00,-0.00,-2.11,-3.39,9.02,-0.02,-0.01,0.00,-0.52,0.09,0.86,-0.12,-0.06,-0.24,L
13.42,255,255,255,255,255,-7.90,0.85,5.97,-0.00,0.01,0.01,-8.87,-2.79,3.64,-0.03,0.00,-0.02,-8.28,-2.18,5.46,0.01,0.02,-0.01,-5.45,-5.25,6.46,0.01,0.00,-0.00,-2.08,-3.38,8.99,-0.01,-0.01,0.00,-0.52,0.09,0.86,0.12,0.06,-0.31,L
13.469,255,255,255,255,255,-7.93,0.83,5.97,-0.00,0.00,0.00,-8.87,-2.78,3.55,-0.03,0.00,-0.02,-8.21,-2.10,5.41,0.02,0.02,-0.00,-5.35,-5.25,6.48,0.01,-0.00,0.01,-2.12,-3.34,8.98,-0.01,-0.01,0.01,-0.52,0.09,0.87,-0.12,0.12,-0.37,L
13.52,255,255,255,0,255,-7.91,0.88,6.04,-0.00,0.01,-0.00,-8.88,-2.77,3.62,-0.03,-0.00,-0.03,-8.23,-2.12,5.42,0.01,0.01,-0.01,-5.43,-5.22,6.49,0.01,0.00,-0.00,-2.09,-3.37,8.99,-0.02,-0.01,0.00,-0.52,0.09,0.86,0.24,-0.12,0.00,L
13.573,255,255,255,0,255,-7.83,0.88,6.03,-0.00,0.01,-0.01,-8.84,-2.84,3.63,-0.03,0.00,-0.03,-8.21,-2.04,5.45,0.02,0.02,-0.01,-5.39,-5.24,6.56,0.01,0.01,0.00,-2.05,-3.39,8.97,-0.02,-0.01,0.01,-0.52,0.09,0.86,0.12,0.00,-0.24,L
13.623,255,255,255,255,255,-7.93,0.81,5.95,-0.01,0.01,0.00,-8.86,-2.79,3.59,-0.03,-0.00,-0.02,-8.24,-2.14,5.42,0.01,0.01,-0.01,-5.38,-5.23,6.49,0.00,-0.00,0.00,-2.06,-3.41,8.98,-0.01,-0.01,0.01,-0.52,0.09,0.87,-0.06,0.00,-0.12,L
13.676,255,255,255,255,255,-7.89,0.89,5.97,-0.00,0.01,-0.01,-8.84,-2.82,3.62,-0.03,-0.00,-0.02,-8.22,-2.09,5.46,0.01,0.02,-0.00,-5.36,-5.26,6.47,0.01,0.00,-0.00,-2.04,-3.39,8.97,-0.02,-0.01,0.00,-0.52,0.09,0.86,-0.06,-0.12,-0.12,L
13.726,255,255,255,255,255,-7.89,0.81,5.93,0.00,0.01,0.01,-8.87,-2.78,3.55,-0.03,0.00,-0.02,-8.20,-2.17,5.43,0.02,0.02,-0.01,-5.43,-5.25,6.49,0.01,0.00,0.01,-2.06,-3.42,8.99,-0.01,-0.01,0.00,-0.52,0.09,0.86,-0.18,0.37,-0.43,L
13.776,255,255,255,255,255,-7.84,0.90,6.00,0.00,0.01,0.00,-8.89,-2.77,3.62,-0.03,-0.00,-0.02,-8.23,-2.09,5.46,0.01,0.02,-0.01,-5.38,-5.20,6.47,0.01,0.00,-0.00,-2.02,-3.38,9.01,-0.01,-0.01,0.00,-0.52,0.09,0.87,-0.12,-0.12,-0.18,L
13.827,255,255,255,255,255,-7.80,0.85,6.00,-0.01,0.01,-0.01,-8.88,-2.81,3.64,-0.03,-0.00,-0.03,-8.24,-2.15,5.40,0.01,0.02,-0.01,-5.37,-5.26,6.46,0.01,-0.00,0.00,-2.10,-3.41,8.98,-0.01,-0.01,0.01,-0.52,0.09,0.86,0.06,-0.06,0.00,L
13.883,255,255,255,255,255,-7.88,0.88,5.94,-0.01,0.01,-0.00,-8.88,-2.83,3.64,-0.03,-0.00,-0.02,-8.23,-2.14,5.40,0.01,0.02,-0.00,-5.35,-5.29,6.46,0.01,0.01,0.00,-2.07,-3.40,9.04,-0.01,-0.00,0.00,-0.52,0.09,0.86,0.00,0.06,-0.06,L
13.93,255,255,255,255,255,-7.84,0.82,6.00,-0.01,0.01,-0.01,-8.86,-2.78,3.61,-0.03,-0.01,-0.02,-8.18,-2.08,5.43,0.01,0.02,-0.01,-5.40,-5.20,6.49,0.00,-0.00,0.00,-2.11,-3.34,8.99,-0.01,-0.01,0.01,-0.52,0.09,0.86,0.18,0.06,0.06,L
13.981,255,255,255,255,255,-7.97,0.90,5.99,-0.00,0.00,0.00,-8.90,-2.80,3.63,-0.03,-0.00,-0.02,-8.25,-2.12,5.44,0.01,0.02,-0.01,-5.38,-5.28,6.45,0.00,0.00,-0.01,-2.13,-3.37,9.00,-0.02,-0.01,0.00,-0.52,0.09,0.87,-0.06,-0.31,-0.18,L
14.031,255,255,255,255,255,-7.94,0.85,5.99,0.00,0.01,-0.00,-8.85,-2.86,3.57,-0.03,0.00,-0.02,-8.20,-2.08,5.46,0.02,0.02,-0.01,-5.40,-5.23,6.53,0.01,-0.00,-0.00,-2.07,-3.39,8.95,-0.01,-0.01,-0.00,-0.52,0.09,0.86,-0.18,0.00,-0.31,L
14.084,255,255,255,0,255,-7.90,0.90,6.01,-0.01,0.01,-0.00,-8.86,-2.82,3.65,-0.03,-0.00,-0.03,-8.19,-2.15,5.44,0.01,0.01,-0.01,-5.38,-5.27,6.50,0.01,-0.00,0.00,-2.09,-3.38,9.02,-0.02,-0.01,0.00,-0.52,0.09,0.86,-0.18,-0.18,0.06,L
14.132,255,255,255,0,255,-7.93,0.91,6.00,-0.00,0.01,0.00,-8.90,-2.82,3.59,-0.03,-0.00,-0.02,-8.26,-2.13,5.42,0.01,0.02,-0.01,-5.40,-5.26,6.48,0.00,0.00,0.01,-2.07,-3.36,9.01,-0.01,-0.01,0.00,-0.52,0.09,0.86,0.00,0.06,0.00,L
14.185,255,255,255,255,255,-7.92,0.85,6.00,-0.00,0.01,-0.00,-8.90,-2.78,3.57,-0.03,-0.00,-0.02,-8.23,-2.06,5.43,0.01,0.02,0.00,-5.43,-5.24,6.51,0.01,-0.01,0.01,-2.12,-3.34,8.95,-0.01,-0.01,0.01,-0.52,0.09,0.86,-0.18,0.12,-0.12,L
14.235,255,255,255,255,255,-7.90,0.90,5.98,-0.01,0.01,-0.00,-8.87,-2.86,3.58,-0.02,0.00,-0.02,-8.22,-2.13,5.42,0.02,0.02,-0.01,-5.38,-5.26,6.50,0.01,0.00,0.00,-2.10,-3.39,9.02,-0.02,-0.01,0.01,-0.52,0.09,0.86,0.18,0.12,-0.06,L
14.287,255,255,255,255,255,-7.95,0.84,5.98,-0.01,0.01,0.00,-8.89,-2.74,3.56,-0.02,-0.00,-0.02,-8.23,-2.04,5.43,0.01,0.01,-0.01,-5.39,-5.25,6.50,0.00,-0.00,0.00,-2.04,-3.37,8.99,-0.02,-0.01,0.01,-0.52,0.09,0.86,-0.24,0.18,0.06,L
14.338,255,255,255,255,255,-7.97,0.91,6.00,-0.01,0.01,-0.00,-8.95,-2.77,3.60,-0.03,-0.00,-0.03,-8.25,-2.10,5.45,0.01,0.02,-0.01,-5.41,-5.28,6.58,0.00,0.00,-0.00,-2.10,-3.35,9.01,-0.01,-0.01,-0.00,-0.52,0.09,0.86,0.37,0.06,0.00,L
14.386,255,255,255,255,255,-7.83,0.91,5.94,-0.01,0.01,-0.01,-8.89,-2.78,3.59,-0.03,-0.00,-0.02,-8.19,-2.06,5.43,0.02,0.02,-0.01,-5.35,-5.25,6.57,0.01,0.00,0.00,-2.04,-3.40,8.99,-0.01,-0.01,0.01,-0.52,0.09,0.86,0.00,0.12,-0.12,L
14.441,255,255,255,255,255,-7.91,0.86,6.00,-0.00,0.01,-0.01,-8.88,-2.81,3.54,-0.02,0.00,-0.03,-8.27,-2.11,5.44,0.01,0.02,-0.01,-5.39,-5.33,6.49,0.01,-0.00,0.00,-2.14,-3.39,8.95,-0.02,-0.01,0.00,-0.52,0.09,0.86,0.00,0.24,-0.06,L
14.488,255,255,255,0,255,-7.90,0.88,5.94,-0.00,0.01,0.00,-8.86,-2.82,3.58,-0.02,0.00,-0.01,-8.22,-2.15,5.44,0.01,0.02,-0.00,-5.40,-5.18,6.43,0.01,0.00,0.01,-2.01,-3.33,8.95,-0.01,-0.00,0.01,-0.52,0.09,0.86,-0.31,0.12,-0.12,L
14.547,255,255,255,255,255,-7.91,0.85,5.94,0.00,0.01,0.00,-8.85,-2.81,3.59,-0.03,0.00,-0.02,-8.25,-2.09,5.38,0.01,0.02,-0.00,-5.39,-5.31,6.48,0.01,0.00,0.01,-2.13,-3.41,9.00,-0.00,-0.01,0.01,-0.52,0.09,0.87,-0.24,0.00,-0.12,L
14.59,255,255,255,255,255,-7.92,0.93,6.04,-0.00,0.01,0.01,-8.93,-2.79,3.62,-0.03,-0.00,-0.02,-8.19,-2.07,5.44,0.01,0.02,-0.01,-5.34,-5.19,6.51,0.01,-0.00,0.00,-2.02,-3.38,9.00,-0.03,-0.01,0.00,-0.52,0.10,0.86,-0.37,-0.06,-0.24,L
14.644,127,255,255,255,255,-7.84,0.87,6.01,0.00,0.01,-0.00,-8.85,-2.83,3.61,-0.03,-0.00,-0.02,-8.19,-2.07,5.44,0.01,0.02,-0.01,-5.37,-5.17,6.55,0.00,0.00,0.00,-2.06,-3.36,9.00,-0.01,-0.01,0.01,-0.52,0.10,0.86,-0.24,0.06,-0.18,L
14.696,255,255,255,255,255,-7.92,0.89,6.00,-0.01,0.01,0.00,-8.89,-2.77,3.56,-0.03,-0.01,-0.01,-8.20,-2.09,5.43,0.01,0.01,-0.01,-5.38,-5.18,6.58,0.01,-0.00,0.00,-2.06,-3.37,8.96,-0.00,-0.01,0.01,-0.52,0.09,0.86,-0.37,0.12,-0.06,L
14.746,255,255,255,255,255,-7.85,0.90,5.94,-0.01,0.01,-0.00,-8.84,-2.83,3.57,-0.03,-0.00,-0.02,-8.19,-2.13,5.41,0.01,0.02,-0.01,-5.43,-5.25,6.51,0.01,-0.00,0.01,-2.07,-3.33,8.99,-0.01,-0.01,0.01,-0.52,0.09,0.86,-0.18,0.24,0.00,L
14.798,255,255,255,255,255,-7.85,0.90,5.94,-0.00,0.01,-0.00,-8.88,-2.81,3.56,-0.02,-0.00,-0.02,-8.18,-2.08,5.40,0.01,0.01,-0.00,-5.37,-5.17,6.52,0.01,-0.00,0.01,-2.06,-3.36,8.97,-0.02,-0.01,0.00,-0.52,0.09,0.86,-0.49,0.12,0.06,L
14.844,255,255,255,255,255,-7.91,0.98,6.00,-0.01,0.00,0.00,-8.88,-2.78,3.59,-0.03,-0.01,-0.02,-8.26,-2.08,5.39,0.01,0.01,-0.01,-5.41,-5.22,6.49,0.00,-0.01,0.00,-2.04,-3.42,9.01,-0.01,-0.01,0.00,-0.52,0.09,0.86,-0.31,0.06,0.00,L
14.899,255,255,255,0,255,-7.88,0.88,6.00,-0.01,0.01,0.01,-8.93,-2.82,3.67,-0.02,-0.00,-0.01,-8.23,-2.10,5.44,0.01,0.02,-0.00,-5.36,-5.23,6.47,0.01,-0.00,0.00,-2.07,-3.40,9.00,-0.01,-0.01,0.01,-0.52,0.09,0.86,-0.55,0.06,-0.12,L
14.948,255,255,255,255,255,-7.84,0.91,5.92,-0.01,0.01,0.00,-8.84,-2.74,3.60,-0.03,0.00,-0.02,-8.19,-2.06,5.45,0.01,0.02,-0.01,-5.39,-5.16,6.48,0.00,0.00,0.01,-2.09,-3.36,8.99,-0.02,0.00,0.00,-0.52,0.10,0.86,-0.31,0.31,0.06,L
15.004,255,255,255,255,255,-7.93,0.86,6.00,-0.01,0.00,0.01,-8.94,-2.80,3.59,-0.03,-0.01,-0.02,-8.23,-2.06,5.43,0.01,0.02,-0.00,-5.39,-5.27,6.50,0.01,-0.00,0.01,-2.07,-3.41,9.01,-0.02,-0.01,0.00,-0.52,0.09,0.87,-0.43,0.37,0.00,L
15.05,0,255,255,255,255,-7.95,0.81,5.97,-0.01,0.01,0.01,-8.89,-2.73,3.61,-0.03,-0.00,-0.02,-8.26,-2.06,5.46,0.01,0.01,-0.00,-5.42,-5.26,6.46,0.01,-0.00,0.01,-2.07,-3.36,9.03,-0.01,-0.01,0.01,-0.52,0.10,0.86,-0.55,0.06,0.18,L
15.102,255,255,255,255,255,-7.94,0.94,5.99,-0.01,0.01,0.01,-8.83,-2.77,3.56,-0.03,-0.00,-0.02,-8.28,-2.05,5.39,0.01,0.01,-0.01,-5.45,-5.26,6.53,0.00,-0.01,0.01,-2.06,-3.35,8.98,0.00,0.00,0.01,-0.52,0.10,0.87,-0.24,0.37,0.24,L
15.152,255,255,255,255,255,-7.94,0.89,5.96,-0.01,0.01,-0.00,-8.89,-2.80,3.61,-0.03,-0.00,-0.02,-8.23,-2.09,5.43,0.01,0.02,-0.01,-5.37,-5.23,6.48,0.00,0.00,0.00,-2.09,-3.36,9.01,-0.01,-0.00,0.00,-0.52,0.09,0.86,0.06,0.00,0.12,L
15.212,255,255,255,255,255,-7.85,0.87,5.98,-0.00,0.00,-0.01,-8.87,-2.76,3.63,-0.02,-0.01,-0.02,-8.21,-2.07,5.42,0.01,0.02,-0.01,-5.35,-5.20,6.50,0.01,0.00,0.01,-2.05,-3.38,8.99,-0.01,-0.01,0.00,-0.52,0.09,0.86,-0.12,0.31,0.00,L
15.254,255,255,255,255,255,-7.93,0.89,6.01,-0.01,0.01,0.00,-8.94,-2.79,3.61,-0.03,0.00,-0.01,-8.28,-2.06,5.46,0.01,0.02,0.00,-5.42,-5.26,6.47,-0.00,-0.00,0.01,-2.13,-3.35,8.96,0.01,0.00,0.01,-0.52,0.09,0.86,-0.73,0.24,0.00,L
15.305,255,255,255,255,255,-7.95,0.88,6.00,-0.01,0.01,0.01,-8.84,-2.73,3.61,-0.03,-0.00,-0.02,-8.23,-2.08,5.40,0.01,0.02,-0.01,-5.40,-5.17,6.49,0.01,-0.01,-0.00,-2.13,-3.34,8.99,-0.03,-0.00,0.01,-0.52,0.10,0.86,-0.31,0.18,0.18,L
15.356,255,255,255,255,255,-7.93,0.87,5.97,-0.01,0.01,0.00,-8.97,-2.78,3.59,-0.02,0.00,-0.01,-8.26,-2.11,5.45,0.01,0.02,-0.00,-5.39,-5.19,6.54,0.00,-0.00,0.00,-2.12,-3.38,9.03,-0.02,-0.00,0.01,-0.52,0.10,0.86,-0.55,-0.06,-0.06,L
15.405,255,255,255,0,255,-7.90,0.87,5.97,-0.01,0.01,0.00,-8.90,-2.69,3.61,-0.03,-0.00,-0.02,-8.25,-2.08,5.42,0.01,0.02,-0.01,-5.40,-5.20,6.56,0.01,-0.00,0.01,-2.07,-3.34,8.97,-0.03,-0.01,0.00,-0.52,0.10,0.86,-0.24,0.18,0.00,L
15.46,255,255,255,255,255,-7.88,0.93,5.94,-0.01,0.00,-0.00,-8.85,-2.72,3.61,-0.03,-0.01,-0.02,-8.20,-2.01,5.46,0.01,0.01,-0.01,-5.37,-5.22,6.52,0.01,-0.00,0.01,-2.04,-3.33,8.99,-0.01,-0.00,0.00,-0.52,0.10,0.86,-0.24,0.06,0.06,L
15.513,255,255,255,255,255,-7.92,0.85,6.00,-0.01,0.01,-0.00,-8.91,-2.76,3.62,-0.03,0.00,-0.02,-8.27,-2.10,5.49,0.01,0.02,-0.01,-5.43,-5.28,6.52,0.01,0.01,0.01,-2.01,-3.32,8.99,-0.02,-0.01,0.00,-0.52,0.09,0.86,-0.12,0.24,0.06,L
15.562,255,255,255,255,255,-7.92,0.91,6.00,-0.00,0.01,-0.00,-8.87,-2.77,3.57,-0.03,-0.01,-0.02,-8.24,-2.08,5.42,0.01,0.02,-0.01,-5.36,-5.28,6.51,0.01,-0.00,0.01,-2.08,-3.36,9.02,-0.01,-0.01,0.00,-0.52,0.10,0.87,-0.12,0.12,0.00,L
15.613,255,255,255,255,255,-7.86,0.94,6.00,-0.01,0.01,-0.00,-8.86,-2.74,3.62,-0.03,-0.00,-0.02,-8.27,-2.10,5.47,0.01,0.01,-0.01,-5.37,-5.26,6.54,0.00,0.00,0.00,-2.06,-3.39,9.00,-0.02,-0.01,0.00,-0.52,0.10,0.86,-0.06,0.06,0.18,L
15.664,255,255,255,255,255,-7.86,0.92,5.97,-0.01,0.01,-0.00,-8.83,-2.75,3.60,-0.03,-0.01,-0.02,-8.25,-2.10,5.41,0.00,0.02,-0.01,-5.38,-5.26,6.54,0.01,0.00,0.01,-2.01,-3.31,9.04,-0.02,-0.01,0.00,-0.52,0.09,0.86,-0.24,0.24,0.12,L
15.712,255,255,255,255,255,-7.90,0.79,6.05,-0.13,0.03,-0.01,-8.85,-2.91,3.58,-0.04,0.00,-0.02,-8.22,-2.06,5.48,0.02,0.01,-0.01,-5.39,-5.14,6.62,0.03,0.00,0.01,-2.04,-3.39,9.03,-0.02,-0.00,0.00,-0.52,0.10,0.86,0.00,0.18,0.06,L
15.77,255,255,255,255,255,-7.98,0.87,5.95,-0.01,0.01,-0.00,-8.83,-2.72,3.63,-0.03,0.00,-0.02,-8.17,-2.09,5.43,0.01,0.02,-0.01,-5.35,-5.21,6.50,0.00,0.00,-0.01,-2.09,-3.34,9.03,-0.02,-0.01,0.00,-0.52,0.09,0.87,0.12,0.18,-0.12,L
15.814,255,255,255,255,255,-7.82,0.88,6.01,-0.00,0.01,-0.00,-8.93,-2.72,3.58,-0.03,0.00,-0.03,-8.22,-2.11,5.42,0.01,0.02,-0.02,-5.41,-5.23,6.53,0.01,0.00,0.00,-2.02,-3.33,8.96,-0.00,-0.01,0.01,-0.52,0.10,0.86,-0.12,0.06,-0.43,L
15.869,255,255,255,0,255,-7.95,0.92,5.99,-0.01,0.01,-0.01,-8.89,-2.75,3.66,-0.02,-0.00,-0.03,-8.23,-2.07,5.45,0.01,0.01,-0.02,-5.43,-5.25,6.57,0.01,0.00,-0.00,-2.06,-3.32,9.00,-0.02,-0.01,0.00,-0.52,0.10,0.86,0.18,-0.24,0.12,L
15.921,255,255,255,255,255,-7.96,0.87,5.99,-0.00,0.00,-0.01,-8.90,-2.72,3.60,-0.03,-0.01,-0.03,-8.20,-2.05,5.45,0.01,0.01,-0.01,-5.35,-5.20,6.52,0.01,-0.00,0.00,-2.09,-3.36,9.04,-0.02,-0.01,0.00,-0.52,0.09,0.86,0.43,-0.06,-0.12,L
15.971,255,255,255,255,255,-7.89,0.84,5.97,-0.01,0.01,-0.00,-8.79,-2.78,3.61,-0.03,0.00,-0.02,-8.19,-2.01,5.47,0.01,0.02,-0.00,-5.33,-5.21,6.51,0.01,0.00,0.01,-2.04,-3.31,8.95,-0.01,-0.01,0.01,-0.52,0.10,0.86,-0.18,0.06,-0.18,L
16.021,255,255,255,255,255,-7.89,0.91,6.01,-0.01,0.01,0.00,-8.97,-2.81,3.63,-0.03,0.00,-0.02,-8.21,-2.12,5.46,0.02,0.02,-0.01,-5.42,-5.23,6.53,0.01,0.00,0.00,-2.13,-3.37,9.00,-0.01,-0.01,0.01,-0.52,0.10,0.87,-0.06,-0.18,-0.18,L
16.069,255,255,255,255,255,-7.97,0.85,5.93,0.00,0.01,0.00,-8.84,-2.77,3.62,-0.03,0.00,-0.02,-8.22,-2.13,5.38,0.02,0.02,-0.01,-5.34,-5.20,6.49,0.01,0.00,-0.00,-2.07,-3.31,9.02,-0.02,-0.00,0.01,-0.52,0.09,0.86,-0.12,0.06,-0.49,L
16.122,255,255,255,255,255,-7.91,0.94,5.97,0.00,0.01,0.00,-8.83,-2.76,3.62,-0.03,0.01,-0.02,-8.18,-2.06,5.41,0.01,0.02,-0.01,-5.41,-5.20,6.47,0.01,-0.00,0.00,-2.02,-3.30,9.05,-0.02,-0.01,0.01,-0.52,0.10,0.86,-0.24,-0.12,-0.37,L
16.173,255,255,255,255,255,-7.90,0.91,6.01,-0.00,0.02,-0.00,-8.90,-2.80,3.56,-0.03,0.00,-0.03,-8.22,-2.05,5.49,0.00,0.02,-0.01,-5.39,-5.22,6.56,0.01,0.00,0.00,-2.06,-3.39,9.03,-0.02,-0.01,0.00,-0.52,0.09,0.86,0.06,0.06,0.06,L
16.221,255,255,255,255,255,-7.92,0.94,5.97,-0.01,0.01,-0.00,-8.88,-2.70,3.51,-0.03,-0.00,-0.03,-8.17,-2.03,5.42,0.01,0.01,-0.01,-5.33,-5.17,6.49,0.01,0.00,0.00,-2.05,-3.30,8.93,-0.02,-0.01,0.00,-0.52,0.10,0.86,-0.12,0.00,-0.18,L
16.274,255,255,255,255,255,-7.94,0.91,5.98,-0.01,0.01,-0.01,-8.87,-2.79,3.63,-0.03,-0.00,-0.03,-8.24,-2.06,5.44,0.01,0.01,-0.01,-5.36,-5.25,6.50,0.00,-0.00,0.00,-2.02,-3.37,9.04,-0.01,-0.01,0.00,-0.52,0.09,0.86,0.12,-0.18,-0.06,L
16.326,127,255,255,255,255,-7.92,0.90,5.97,-0.01,0.01,-0.00,-8.90,-2.80,3.59,-0.03,-0.00,-0.02,-8.25,-2.06,5.42,0.01,0.02,-0.01,-5.39,-5.16,6.51,0.01,0.00,0.00,-2.07,-3.32,9.00,-0.01,-0.01,0.01,-0.52,0.10,0.87,-0.06,0.12,-0.12,L
16.377,255,255,255,255,255,-7.92,0.95,5.99,-0.00,0.01,0.00,-8.91,-2.81,3.64,-0.02,0.00,-0.02,-8.26,-2.03,5.43,0.02,0.02,-0.01,-5.42,-5.21,6.47,0.01,-0.01,-0.00,-2.05,-3.40,9.04,-0.02,-0.01,-0.00,-0.52,0.10,0.86,0.12,-0.12,-0.18,L
16.43,255,255,255,255,255,-7.89,0.88,6.02,-0.01,0.01,-0.01,-8.90,-2.73,3.60,-0.03,0.00,-0.02,-8.22,-2.05,5.45,0.01,0.01,-0.01,-5.47,-5.22,6.52,0.01,0.00,-0.00,-2.04,-3.32,9.02,-0.02,-0.01,0.00,-0.52,0.09,0.86,0.12,0.06,-0.06,L
16.479,255,255,255,0,255,-7.92,0.92,6.02,-0.00,0.01,-0.01,-8.90,-2.71,3.63,-0.03,-0.00,-0.03,-8.21,-2.07,5.40,0.01,0.01,-0.01,-5.34,-5.21,6.47,0.00,0.00,0.00,-2.07,-3.31,8.99,-0.01,-0.01,0.01,-0.52,0.10,0.86,0.06,-0.06,0.00,L
16.527,255,255,255,255,255,-7.92,0.97,5.95,-0.00,0.01,0.00,-8.88,-2.73,3.66,-0.03,0.00,-0.02,-8.25,-2.05,5.42,0.01,0.02,-0.01,-5.38,-5.17,6.57,0.00,-0.00,0.01,-2.07,-3.39,9.01,-0.01,-0.01,0.00,-0.52,0.10,0.86,-0.18,0.06,-0.12,L
16.581,255,255,255,255,255,-7.87,0.92,6.00,-0.01,0.01,0.00,-8.85,-2.72,3.61,-0.03,-0.00,-0.02,-8.24,-2.11,5.45,0.02,0.01,-0.00,-5.37,-5.21,6.45,0.01,-0.00,0.01,-2.03,-3.33,8.99,-0.02,-0.01,0.01,-0.52,0.10,0.86,-0.24,0.00,-0.06,L
16.634,255,255,255,255,255,-7.89,0.95,6.00,-0.01,0.01,-0.01,-8.91,-2.75,3.69,-0.03,0.00,-0.02,-8.22,-2.06,5.47,0.01,0.02,-0.01,-5.40,-5.24,6.52,0.01,-0.00,-0.00,-2.04,-3.38,8.97,-0.02,-0.01,0.01,-0.52,0.10,0.86,0.18,-0.06,0.18,L
16.681,255,255,255,255,255,-7.87,0.90,5.98,-0.01,0.00,-0.01,-8.88,-2.82,3.63,-0.03,-0.00,-0.03,-8.20,-2.08,5.40,0.01,0.01,-0.01,-5.39,-5.22,6.51,0.01,0.00,0.00,-2.07,-3.28,8.96,-0.01,-0.01,0.00,-0.52,0.09,0.86,-0.06,-0.06,-0.12,L
16.734,255,255,255,255,255,-7.89,0.92,6.00,-0.01,0.00,-0.00,-8.86,-2.76,3.60,-0.03,-0.00,-0.02,-8.16,-2.05,5.42,0.01,0.01,-0.02,-5.33,-5.19,6.50,-0.00,-0.00,-0.00,-2.00,-3.36,9.03,-0.01,-0.00,0.00,-0.52,0.10,0.86,0.12,-0.06,0.06,L
16.786,255,255,255,255,255,-7.90,0.87,5.98,-0.00,0.01,0.00,-8.88,-2.79,3.60,-0.03,-0.00,-0.02,-8.27,-2.10,5.43,0.01,0.02,-0.01,-5.40,-5.23,6.54,0.01,0.00,0.01,-2.04,-3.35,9.03,-0.02,-0.01,0.01,-0.52,0.09,0.86,-0.12,0.24,-0.06,L
16.837,255,255,255,255,255,-7.89,0.92,6.00,-0.01,0.01,0.01,-8.86,-2.73,3.59,-0.02,0.00,-0.02,-8.18,-2.06,5.39,0.02,0.02,-0.00,-5.36,-5.17,6.53,0.01,0.00,0.01,-2.03,-3.33,9.01,-0.01,-0.00,0.01,-0.52,0.10,0.86,-0.12,0.18,-0.18,L
16.886,255,255,255,255,255,-7.89,0.87,5.90,-0.00,0.01,-0.00,-8.89,-2.75,3.58,-0.03,0.00,-0.02,-8.24,-2.07,5.46,0.01,0.01,-0.01,-5.37,-5.21,6.52,0.00,-0.00,-0.00,-2.06,-3.34,8.98,-0.01,-0.01,0.00,-0.52,0.10,0.86,-0.06,-0.18,-0.06,L
16.944,255,255,255,0,255,-7.90,0.89,6.03,-0.01,0.01,-0.00,-8.87,-2.73,3.60,-0.03,0.00,-0.02,-8.21,-2.04,5.43,0.01,0.02,-0.01,-5.38,-5.23,6.58,0.01,0.00,0.01,-2.01,-3.30,9.01,-0.02,-0.01,0.00,-0.52,0.10,0.86,-0.12,0.06,-0.06,L
16.988,255,255,255,255,255,-7.87,0.93,5.96,-0.00,0.01,-0.01,-8.89,-2.72,3.67,-0.03,-0.00,-0.03,-8.20,-2.08,5.41,0.01,0.01,-0.01,-5.28,-5.21,6.55,0.01,0.00,0.00,-1.98,-3.41,8.96,-0.01,0.00,0.01,-0.52,0.10,0.86,-0.12,-0.12,0.06,L
17.042,255,255,255,255,255,-7.92,0.81,6.00,-0.01,0.00,-0.01,-8.87,-2.73,3.67,-0.03,-0.00,-0.03,-8.19,-2.10,5.46,0.01,0.02,-0.01,-5.37,-5.24,6.50,0.00,-0.01,-0.00,-2.07,-3.34,9.05,-0.02,-0.01,0.00,-0.52,0.09,0.86,0.18,0.12,0.18,L
17.089,255,255,255,255,255,-7.93,0.92,6.00,-0.01,0.01,-0.00,-8.90,-2.75,3.59,-0.02,0.00,-0.02,-8.28,-2.09,5.44,0.01,0.02,-0.01,-5.43,-5.18,6.55,0.01,-0.00,0.00,-2.05,-3.34,9.05,-0.02,-0.00,0.00,-0.52,0.10,0.86,-0.12,0.00,-0.18,L
17.142,255,255,255,255,255,-7.91,0.91,5.98,-0.01,0.01,-0.00,-8.86,-2.73,3.63,-0.02,-0.00,-0.02,-8.20,-2.07,5.43,0.01,0.02,-0.01,-5.38,-5.24,6.53,0.00,-0.00,-0.01,-2.07,-3.33,9.06,-0.02,-0.01,0.01,-0.52,0.10,0.86,0.18,0.00,0.12,L
17.196,255,255,255,0,255,-7.92,0.88,5.98,-0.01,0.01,-0.00,-8.92,-2.81,3.60,-0.03,-0.00,-0.02,-8.19,-2.06,5.44,0.00,0.02,-0.01,-5.38,-5.26,6.49,0.01,-0.00,0.00,-2.05,-3.41,8.97,-0.02,-0.00,0.00,-0.52,0.09,0.86,-0.12,0.18,0.00,L
17.245,255,255,255,255,255,-7.87,0.93,6.00,-0.01,0.01,0.00,-8.85,-2.77,3.56,-0.03,0.00,-0.02,-8.20,-2.02,5.41,0.01,0.02,0.00,-5.36,-5.20,6.49,0.01,-0.00,0.01,-2.04,-3.26,9.00,-0.01,-0.01,0.01,-0.52,0.10,0.86,-0.12,0.18,-0.12,L
17.297,255,255,255,255,255,-7.93,0.93,5.96,-0.01,0.01,-0.00,-8.92,-2.80,3.62,-0.03,-0.00,-0.02,-8.25,-2.06,5.42,0.01,0.02,-0.02,-5.42,-5.20,6.49,-0.01,0.01,-0.00,-2.10,-3.38,9.05,-0.02,-0.00,0.00,-0.52,0.10,0.86,0.18,-0.12,0.31,L
17.348,255,255,255,255,255,-7.90,0.96,5.96,-0.00,0.01,-0.00,-8.89,-2.80,3.62,-0.03,-0.00,-0.02,-8.19,-2.05,5.43,0.01,0.02,-0.01,-5.42,-5.21,6.53,0.01,-0.01,0.01,-2.11,-3.35,8.98,-0.01,-0.01,0.01,-0.52,0.10,0.86,-0.37,0.18,-0.24,L
17.397,127,255,255,0,255,-7.86,0.93,6.00,-0.01,0.01,0.00,-8.93,-2.69,3.63,-0.04,0.00,-0.03,-8.25,-2.08,5.44,0.01,0.02,-0.01,-5.39,-5.22,6.56,-0.00,0.00,0.01,-2.05,-3.39,9.00,-0.03,-0.01,0.00,-0.52,0.10,0.86,0.18,0.00,0.37,L
17.447,255,255,255,255,255,-7.91,0.87,5.97,-0.01,-0.00,-0.01,-8.91,-2.74,3.62,-0.03,0.00,-0.03,-8.16,-2.13,5.40,0.01,0.02,-0.01,-5.41,-5.29,6.49,0.02,0.00,0.00,-2.02,-3.34,9.04,-0.01,-0.01,0.00,-0.52,0.09,0.86,-0.06,0.18,-0.31,L
17.498,255,255,255,255,255,-7.89,0.94,6.00,-0.00,0.00,-0.00,-8.83,-2.71,3.60,-0.03,-0.00,-0.03,-8.22,-2.09,5.43,0.01,0.01,-0.01,-5.34,-5.19,6.58,0.00,-0.00,0.00,-2.03,-3.38,9.02,-0.02,-0.00,0.01,-0.52,0.10,0.86,0.18,0.00,0.18,L
17.552,255,255,255,255,255,-7.92,0.87,5.99,-0.01,0.01,0.00,-8.91,-2.77,3.59,-0.03,-0.00,-0.02,-8.31,-2.06,5.45,0.01,0.02,-0.01,-5.40,-5.23,6.56,0.00,0.00,0.01,-2.05,-3.36,8.98,-0.02,-0.01,0.01,-0.52,0.09,0.86,-0.31,0.12,0.06,L
17.603,255,255,255,255,255,-7.98,0.90,6.02,-0.00,0.01,-0.00,-8.89,-2.76,3.63,-0.02,-0.00,-0.02,-8.23,-2.07,5.41,0.02,0.02,-0.01,-5.41,-5.16,6.47,0.01,-0.00,-0.00,-1.99,-3.38,9.00,-0.01,-0.01,0.00,-0.52,0.10,0.86,-0.06,0.12,-0.24,L
17.652,255,255,255,0,255,-7.87,0.95,5.97,-0.00,0.01,-0.00,-8.84,-2.73,3.60,-0.03,0.00,-0.02,-8.25,-2.07,5.41,0.00,0.01,-0.01,-5.40,-5.17,6.51,0.00,0.00,0.00,-2.04,-3.34,9.05,-0.01,-0.00,0.00,-0.52,0.10,0.86,-0.24,0.00,0.00,L
17.704,255,255,255,0,255,-7.92,0.90,6.03,-0.00,0.01,-0.01,-8.91,-2.76,3.63,-0.03,0.00,-0.02,-8.20,-2.00,5.44,0.01,0.02,-0.01,-5.39,-5.28,6.53,0.01,0.00,-0.00,-2.05,-3.42,9.01,-0.02,-0.01,0.00,-0.52,0.10,0.86,0.00,0.37,-0.06,L
17.754,255,255,255,255,255,-7.86,0.92,6.00,-0.01,0.01,0.00,-8.83,-2.70,3.67,-0.03,0.00,-0.02,-8.16,-2.09,5.48,0.01,0.02,-0.01,-5.27,-5.20,6.56,0.01,0.01,0.00,-1.98,-3.42,9.05,-0.00,-0.00,0.00,-0.53,0.10,0.86,-0.06,0.49,0.00,L
17.806,255,255,255,255,255,-7.92,0.92,6.07,0.00,0.03,-0.01,-8.80,-2.80,3.61,-0.02,0.02,-0.03,-8.18,-2.09,5.46,0.01,0.04,-0.01,-5.20,-5.31,6.55,0.00,0.02,0.01,-1.92,-3.40,9.04,-0.00,0.00,-0.00,-0.53,0.09,0.86,0.92,1.71,0.31,L
17.86,255,255,255,255,255,-7.86,0.92,5.99,0.02,0.04,-0.01,-8.93,-2.75,3.67,-0.00,0.03,-0.02,-8.23,-2.15,5.43,0.03,0.05,-0.02,-5.38,-5.25,6.50,0.02,0.03,-0.01,-2.14,-3.33,9.08,0.04,0.01,-0.02,-0.52,0.10,0.86,1.65,1.89,-1.04,L
17.903,255,255,255,255,255,-7.88,0.86,5.88,0.04,0.04,-0.03,-8.92,-2.71,3.55,0.01,0.05,-0.04,-8.19,-2.05,5.37,0.05,0.06,-0.04,-5.42,-5.15,6.44,0.02,0.04,-0.03,-2.11,-3.27,8.97,0.00,0.01,-0.03,-0.51,0.09,0.86,2.87,2.08,-1.34,L
17.959,0,255,255,255,255,-7.93,0.94,5.91,0.03,0.01,-0.03,-8.96,-2.69,3.52,-0.00,0.01,-0.05,-8.32,-1.98,5.37,0.04,0.02,-0.04,-5.48,-5.11,6.50,0.01,0.02,-0.02,-2.15,-3.17,9.05,0.01,0.01,-0.02,-0.51,0.09,0.87,1.89,0.61,-1.04,L
18.007,255,255,255,255,255,-8.11,0.95,5.87,-0.00,0.01,-0.02,-9.02,-2.74,3.46,-0.02,0.00,-0.04,-8.38,-2.07,5.29,0.01,0.03,-0.03,-5.50,-5.19,6.48,-0.00,0.01,-0.02,-2.21,-3.28,9.04,-0.04,0.02,-0.01,-0.50,0.09,0.88,0.98,0.18,-0.12,L
18.06,255,255,255,255,255,-7.91,0.88,5.80,-0.00,0.00,-0.03,-8.82,-2.74,3.57,-0.01,-0.00,-0.04,-8.19,-2.08,5.37,0.01,0.02,-0.03,-5.30,-5.16,6.45,0.01,0.01,-0.02,-1.93,-3.28,8.96,-0.03,0.02,0.01,-0.52,0.09,0.86,1.22,-0.12,0.18,L
18.111,255,255,255,255,255,-7.84,0.92,5.96,-0.03,0.00,-0.03,-8.82,-2.72,3.52,-0.06,0.00,-0.06,-8.15,-1.97,5.39,-0.02,0.02,-0.04,-5.37,-5.11,6.48,-0.06,0.00,-0.02,-2.02,-3.31,9.00,-0.07,0.01,0.03,-0.51,0.09,0.86,1.89,0.06,1.89,L
18.163,255,255,255,255,255,-7.92,0.92,5.94,-0.05,0.01,-0.03,-8.93,-2.79,3.53,-0.07,0.01,-0.06,-8.27,-2.11,5.38,-0.03,0.03,-0.04,-5.45,-5.32,6.45,-0.03,0.01,0.01,-2.13,-3.31,9.06,-0.04,0.02,0.03,-0.51,0.08,0.87,1.46,1.28,1.89,L
18.213,255,255,255,0,255,-7.91,0.87,5.93,-0.04,-0.00,-0.04,-8.92,-2.69,3.49,-0.06,-0.01,-0.08,-8.19,-2.04,5.37,-0.01,0.02,-0.06,-5.31,-5.16,6.40,-0.06,0.01,-0.04,-2.03,-3.30,8.90,-0.07,0.01,0.02,-0.50,0.10,0.86,2.93,0.06,1.46,L
18.264,255,255,255,255,255,-7.93,0.79,5.84,-0.04,-0.02,-0.06,-8.86,-2.84,3.48,-0.06,-0.00,-0.10,-8.28,-2.15,5.37,-0.02,0.02,-0.07,-5.45,-5.30,6.39,-0.07,0.02,-0.04,-2.15,-3.45,8.94,-0.09,0.01,0.01,-0.51,0.08,0.87,4.15,0.12,2.62,L
18.315,255,255,255,255,255,-8.07,0.75,6.02,-0.04,-0.00,-0.06,-8.94,-3.05,3.52,-0.06,-0.00,-0.09,-8.32,-2.38,5.32,-0.01,0.01,-0.07,-5.46,-5.59,6.39,-0.07,0.01,-0.03,-2.24,-3.66,9.08,-0.06,-0.02,-0.00,-0.52,0.06,0.88,2.69,-1.22,2.26,L
18.367,255,255,255,0,255,-7.95,0.61,6.00,-0.03,-0.01,-0.03,-8.91,-3.06,3.55,-0.04,-0.00,-0.06,-8.19,-2.32,5.47,0.01,0.01,-0.03,-5.47,-5.55,6.34,-0.02,0.00,-0.01,-2.21,-3.65,8.96,-0.04,-0.01,0.00,-0.52,0.06,0.87,1.34,-1.04,0.73,L
18.415,255,255,255,0,255,-7.79,0.76,5.94,0.01,0.02,0.00,-8.89,-2.98,3.53,-0.04,0.01,-0.02,-8.22,-2.21,5.34,0.03,0.03,0.00,-5.38,-5.34,6.34,-0.01,0.00,0.01,-2.10,-3.38,8.87,-0.02,-0.01,0.03,-0.51,0.07,0.86,-0.67,-0.49,-0.18,L
18.464,255,255,255,255,255,-8.04,0.72,5.92,-0.03,0.01,-0.00,-8.88,-2.94,3.46,-0.06,-0.02,-0.05,-8.26,-2.27,5.38,-0.01,0.01,-0.02,-5.49,-5.40,6.43,0.00,-0.02,-0.01,-2.12,-3.47,9.00,-0.03,-0.02,0.00,-0.51,0.07,0.87,0.73,-0.18,1.16,L
18.521,0,255,255,255,255,-7.75,0.79,6.12,-0.01,0.02,-0.00,-8.92,-2.95,3.46,-0.04,0.00,-0.03,-8.15,-2.20,5.28,0.00,0.02,-0.01,-5.33,-5.40,6.31,-0.01,-0.01,0.00,-2.12,-3.42,8.90,-0.02,-0.01,0.01,-0.51,0.07,0.86,0.06,-0.12,0.73,L
18.57,255,255,255,0,255,-7.98,0.83,5.86,-0.02,-0.00,-0.00,-8.87,-3.03,3.50,-0.02,-0.02,-0.02,-8.19,-2.22,5.34,0.01,0.01,-0.02,-5.25,-5.28,6.58,-0.01,0.02,0.00,-2.31,-3.54,8.91,-0.04,0.00,0.01,-0.52,0.07,0.87,0.55,-0.37,0.24,L
18.623,255,255,255,0,255,-7.97,0.65,5.81,-0.03,-0.01,-0.01,-8.87,-3.06,3.57,-0.01,0.00,-0.04,-8.25,-2.21,5.52,0.03,-0.00,-0.01,-5.35,-5.37,6.36,-0.01,-0.01,-0.01,-2.08,-3.52,8.88,-0.03,-0.02,0.00,-0.52,0.07,0.86,0.31,-0.43,0.24,L
18.674,255,255,255,255,255,-7.91,0.75,5.99,-0.02,0.01,-0.01,-8.76,-3.08,3.50,-0.03,-0.01,-0.03,-8.15,-2.25,5.38,0.01,0.01,-0.02,-5.32,-5.46,6.31,0.01,-0.00,-0.01,-2.18,-3.49,8.90,-0.02,-0.01,0.01,-0.52,0.07,0.86,0.24,-0.12,0.31,L
18.721,0,255,255,255,255,-7.87,0.70,5.91,-0.00,0.01,-0.00,-8.95,-2.97,3.52,-0.04,-0.01,-0.03,-8.24,-2.35,5.44,-0.00,0.01,-0.01,-5.34,-5.46,6.33,0.00,-0.01,0.00,-2.08,-3.50,8.96,-0.01,-0.01,0.02,-0.52,0.07,0.86,-0.06,-0.24,0.12,L
18.777,127,255,255,255,255,-7.86,0.76,6.01,-0.01,0.01,-0.00,-8.79,-3.01,3.54,-0.03,-0.00,-0.02,-8.19,-2.23,5.32,0.01,0.02,-0.01,-5.36,-5.43,6.37,-0.00,-0.00,0.00,-2.06,-3.51,8.96,-0.03,-0.00,0.01,-0.52,0.07,0.86,0.18,0.31,0.18,L
18.826,0,255,255,255,255,-7.89,0.77,6.07,0.00,0.01,-0.01,-8.83,-2.99,3.62,-0.03,-0.00,-0.03,-8.22,-2.31,5.31,0.01,0.01,-0.02,-5.36,-5.48,6.35,-0.00,-0.01,-0.01,-2.05,-3.51,8.94,-0.01,-0.01,0.01,-0.52,0.07,0.86,0.37,-0.18,-0.12,L
18.877,255,255,255,255,255,-7.83,0.74,5.93,0.01,0.01,-0.01,-8.86,-3.02,3.47,-0.03,0.00,-0.03,-8.16,-2.28,5.30,0.01,0.02,-0.01,-5.42,-5.46,6.29,0.01,0.00,-0.00,-2.09,-3.46,8.94,-0.03,-0.01,-0.00,-0.52,0.07,0.87,0.37,0.12,-0.06,L
18.927,0,255,255,255,255,-7.90,0.69,5.95,-0.00,0.01,-0.01,-8.89,-3.00,3.53,-0.03,0.00,-0.03,-8.25,-2.29,5.36,0.02,0.02,-0.01,-5.39,-5.47,6.34,0.00,0.00,0.00,-2.21,-3.49,8.94,-0.01,-0.01,-0.00,-0.52,0.07,0.87,0.49,0.00,-0.24,L
18.977,255,255,255,255,255,-7.90,0.78,5.98,-0.01,0.00,-0.00,-8.96,-3.07,3.44,-0.03,0.00,-0.02,-8.28,-2.26,5.40,0.02,0.01,-0.02,-5.36,-5.46,6.33,0.01,0.00,-0.01,-2.15,-3.46,8.98,-0.02,-0.00,-0.00,-0.52,0.07,0.87,0.43,0.06,-0.24,L
19.03,255,255,255,255,255,-7.92,0.71,5.93,0.01,0.00,-0.01,-8.85,-2.94,3.57,-0.03,-0.01,-0.02,-8.16,-2.27,5.35,0.01,0.01,-0.02,-5.34,-5.42,6.33,0.02,0.00,-0.00,-2.09,-3.48,8.94,-0.02,-0.00,0.00,-0.52,0.07,0.87,-0.06,0.12,-0.31,L
19.08,255,255,255,255,255,-7.87,0.77,6.04,-0.00,0.01,-0.00,-8.92,-3.02,3.56,-0.03,0.00,-0.02,-8.18,-2.30,5.47,0.01,0.01,-0.01,-5.33,-5.50,6.39,-0.00,-0.01,0.00,-2.05,-3.49,9.04,-0.01,-0.01,0.00,-0.52,0.07,0.87,-0.31,0.00,-0.12,L
19.131,127,255,255,255,255,-7.92,0.66,5.96,-0.00,0.02,-0.00,-8.74,-3.06,3.46,-0.04,0.01,-0.03,-8.16,-2.31,5.37,-0.00,0.03,-0.01,-5.28,-5.49,6.33,-0.00,0.01,0.01,-2.11,-3.55,8.93,-0.03,-0.01,0.01,-0.52,0.06,0.86,0.43,0.67,0.61,L
19.184,255,255,255,255,255,-8.01,0.63,6.07,-0.01,0.02,0.01,-8.84,-3.06,3.58,-0.03,0.00,-0.01,-8.24,-2.26,5.42,0.02,0.01,0.00,-5.35,-5.40,6.45,0.01,-0.01,0.00,-2.04,-3.39,9.07,-0.01,0.00,0.01,-0.52,0.08,0.88,-0.61,0.92,-0.12,L
19.232,0,255,255,255,255,-7.96,0.63,5.92,0.00,0.04,-0.01,-8.83,-3.06,3.51,-0.04,0.03,-0.03,-8.26,-2.24,5.32,0.02,0.03,-0.00,-5.33,-5.40,6.31,0.01,0.01,0.00,-2.11,-3.49,8.87,-0.01,-0.01,0.00,-0.50,0.06,0.86,0.12,-0.98,-0.37,L
19.288,255,255,255,255,255,-7.88,0.83,5.90,0.02,-0.01,0.01,-8.84,-2.87,3.48,-0.02,-0.01,-0.02,-8.24,-2.14,5.37,0.02,0.01,-0.01,-5.38,-5.41,6.43,0.01,0.00,0.00,-2.04,-3.42,9.04,-0.01,0.00,0.00,-0.52,0.08,0.88,-0.06,1.53,-0.61,L
19.336,255,255,255,0,255,-8.12,0.72,6.09,-0.02,0.02,-0.01,-8.87,-3.06,3.51,-0.03,0.00,-0.03,-8.19,-2.27,5.40,0.01,0.02,-0.01,-5.31,-5.43,6.33,0.01,-0.01,-0.01,-2.14,-3.41,8.91,-0.03,-0.02,-0.01,-0.51,0.06,0.85,0.00,-2.14,-0.12,L
19.39,255,255,255,255,255,-7.98,0.71,5.88,-0.00,-0.00,-0.00,-8.83,-3.00,3.52,-0.02,-0.01,-0.03,-8.20,-2.22,5.36,0.01,0.01,-0.02,-5.37,-5.45,6.32,-0.00,0.01,-0.01,-2.09,-3.46,9.00,-0.01,0.00,0.00,-0.53,0.07,0.88,0.31,1.16,-0.18,L
19.439,255,255,255,255,255,-8.00,0.69,6.02,0.00,0.02,-0.01,-8.82,-3.04,3.61,-0.02,0.01,-0.02,-8.14,-2.24,5.33,0.03,0.02,-0.02,-5.32,-5.39,6.28,-0.01,-0.01,-0.01,-2.11,-3.45,8.86,-0.02,-0.02,-0.01,-0.52,0.07,0.86,-0.12,-1.53,-0.85,L
19.487,255,255,255,0,255,-8.02,0.68,5.91,-0.00,-0.01,-0.01,-8.83,-3.00,3.58,-0.03,0.00,-0.03,-8.26,-2.25,5.43,0.02,0.02,-0.01,-5.36,-5.51,6.40,0.00,0.01,-0.01,-2.13,-3.45,9.01,-0.01,-0.00,-0.00,-0.52,0.07,0.87,0.61,0.85,-0.43,L
19.539,255,255,255,255,255,-7.95,0.78,5.88,-0.01,0.03,-0.00,-8.91,-3.03,3.44,-0.02,0.02,-0.02,-8.15,-2.18,5.36,0.02,0.02,-0.00,-5.36,-5.43,6.32,0.01,0.01,0.00,-2.11,-3.42,8.95,0.01,0.00,0.00,-0.51,0.07,0.86,0.18,0.18,-0.73,L
19.592,255,255,255,255,255,-7.91,0.77,5.97,0.00,0.00,-0.01,-8.87,-3.02,3.48,-0.03,-0.01,-0.03,-8.26,-2.22,5.38,0.01,0.01,-0.02,-5.41,-5.49,6.39,0.01,-0.00,-0.01,-2.17,-3.53,8.95,-0.04,-0.01,-0.00,-0.52,0.07,0.87,0.67,0.31,0.18,L
19.642,255,255,255,0,255,-7.99,0.72,5.92,-0.00,0.01,-0.00,-8.78,-2.98,3.49,-0.02,0.00,-0.01,-8.15,-2.22,5.38,0.02,0.02,-0.01,-5.37,-5.41,6.33,0.01,0.00,0.00,-2.10,-3.43,8.97,-0.01,-0.00,0.00,-0.52,0.07,0.86,-0.37,0.00,-0.49,L
19.696,127,255,255,255,255,-7.97,0.72,6.00,-0.01,0.01,0.00,-8.94,-3.01,3.60,-0.04,0.00,-0.02,-8.22,-2.30,5.45,0.00,0.02,-0.01,-5.32,-5.47,6.35,-0.01,0.00,0.01,-2.17,-3.53,8.95,-0.02,-0.01,0.00,-0.52,0.07,0.87,-0.24,0.18,0.37,L
19.745,255,255,255,255,255,-7.90,0.70,5.99,-0.01,0.01,-0.01,-8.83,-2.97,3.58,-0.03,-0.00,-0.03,-8.18,-2.27,5.39,0.01,0.02,-0.01,-5.26,-5.44,6.34,0.01,0.00,0.01,-2.04,-3.47,8.90,-0.01,-0.01,0.01,-0.52,0.07,0.86,0.12,0.00,0.00,L
19.798,255,255,255,255,255,-7.92,0.73,5.98,-0.01,0.00,0.00,-8.81,-2.99,3.55,-0.04,-0.00,-0.02,-8.26,-2.30,5.41,0.01,0.02,-0.00,-5.38,-5.47,6.35,0.00,0.00,0.01,-2.10,-3.52,8.97,-0.02,0.00,0.00,-0.52,0.07,0.87,0.06,0.61,0.00,L
19.851,127,255,255,255,255,-7.97,0.76,5.97,-0.01,0.02,0.00,-8.87,-2.98,3.47,-0.03,-0.00,-0.02,-8.25,-2.24,5.34,0.01,0.02,-0.01,-5.36,-5.42,6.34,0.00,-0.00,0.01,-2.14,-3.44,8.92,-0.01,-0.01,0.01,-0.51,0.07,0.87,-0.31,0.43,-0.12,L
19.898,255,255,255,255,255,-7.92,0.75,5.95,0.00,0.01,0.00,-8.88,-3.03,3.53,-0.03,0.00,-0.02,-8.23,-2.22,5.40,0.02,0.02,-0.01,-5.34,-5.43,6.39,-0.00,-0.01,0.00,-2.14,-3.50,8.98,-0.02,-0.00,0.00,-0.52,0.07,0.87,-0.37,0.61,0.06,L
19.947,0,255,255,255,255,-7.96,0.74,5.93,-0.01,0.01,0.00,-8.76,-3.01,3.57,-0.03,0.00,-0.02,-8.16,-2.24,5.37,0.01,0.02,0.00,-5.30,-5.45,6.39,0.00,-0.01,0.01,-2.15,-3.47,8.94,-0.01,-0.00,0.01,-0.51,0.07,0.87,-0.49,0.24,-0.06,L
19.999,255,255,255,255,255,-7.92,0.78,5.98,-0.01,0.01,0.00,-8.81,-2.99,3.55,-0.03,-0.00,-0.03,-8.20,-2.25,5.41,0.01,0.01,-0.01,-5.33,-5.50,6.35,-0.00,-0.01,-0.00,-2.09,-3.50,8.93,-0.02,-0.01,-0.00,-0.52,0.07,0.86,-0.18,0.12,0.12,L
20.05,255,255,255,255,255,-7.89,0.74,5.93,-0.00,0.01,-0.00,-8.82,-2.97,3.51,-0.03,-0.01,-0.02,-8.19,-2.27,5.44,0.01,0.02,-0.01,-5.32,-5.39,6.42,0.01,-0.00,0.00,-2.08,-3.46,8.91,-0.01,-0.01,0.01,-0.52,0.07,0.86,-0.18,0.18,-0.24,L
20.1,0,255,255,255,255,-8.03,0.81,6.00,-0.00,0.01,0.00,-8.83,-3.00,3.53,-0.03,-0.00,-0.02,-8.26,-2.27,5.39,0.00,0.01,-0.01,-5.32,-5.45,6.34,0.01,-0.00,0.00,-2.14,-3.49,8.99,-0.01,-0.00,0.01,-0.52,0.07,0.87,-0.06,0.31,0.06,L
20.153,255,255,255,255,255,-7.95,0.68,5.88,-0.01,0.02,-0.00,-8.83,-3.03,3.51,-0.03,-0.00,-0.02,-8.23,-2.28,5.38,0.01,0.02,-0.00,-5.35,-5.48,6.34,0.00,0.00,0.00,-2.11,-3.42,8.96,-0.02,-0.01,0.00,-0.52,0.07,0.87,0.00,0.24,0.06,L
20.207,255,255,255,255,255,-7.91,0.69,5.96,-0.00,0.01,0.00,-8.87,-2.95,3.58,-0.02,0.00,-0.01,-8.23,-2.30,5.36,0.02,0.02,-0.01,-5.40,-5.48,6.37,0.00,-0.00,0.00,-2.11,-3.45,8.94,-0.02,-0.00,-0.00,-0.52,0.07,0.87,-0.18,0.18,-0.24,L
20.254,255,255,255,255,255,-7.99,0.79,5.97,-0.00,0.01,-0.00,-8.89,-2.95,3.53,-0.03,0.00,-0.02,-8.17,-2.26,5.39,0.01,0.02,-0.01,-5.31,-5.46,6.37,0.01,-0.00,0.00,-2.12,-3.47,8.91,-0.02,0.00,0.01,-0.52,0.07,0.87,-0.18,0.24,-0.24,L
20.307,255,255,255,255,255,-7.97,0.79,5.90,-0.01,0.01,0.00,-8.87,-2.95,3.53,-0.03,-0.00,-0.03,-8.22,-2.25,5.38,0.01,0.01,-0.01,-5.35,-5.40,6.34,0.01,-0.00,0.01,-2.09,-3.42,8.95,-0.01,-0.01,0.01,-0.52,0.07,0.87,-0.37,0.18,0.12,L
20.358,255,255,255,255,255,-8.02,0.76,5.91,-0.01,0.01,0.00,-8.87,-3.00,3.55,-0.03,-0.00,-0.02,-8.23,-2.25,5.33,0.01,0.02,-0.01,-5.35,-5.44,6.31,-0.00,0.00,0.01,-2.19,-3.52,8.90,-0.02,-0.01,0.00,-0.52,0.07,0.87,-0.31,0.06,0.18,L
20.409,0,255,255,0,255,-7.94,0.77,5.94,-0.01,0.01,0.00,-8.84,-2.95,3.53,-0.03,-0.01,-0.02,-8.15,-2.20,5.39,0.01,0.02,0.00,-5.32,-5.45,6.39,0.00,-0.01,0.01,-2.13,-3.50,8.97,-0.02,-0.00,0.01,-0.52,0.07,0.87,-0.55,0.37,0.31,L
20.459,255,255,255,255,255,-7.97,0.77,5.93,-0.02,0.01,-0.00,-8.87,-2.95,3.57,-0.03,-0.00,-0.02,-8.21,-2.26,5.41,-0.00,0.01,-0.01,-5.29,-5.51,6.37,0.01,-0.00,0.00,-2.13,-3.50,8.97,-0.02,-0.01,0.00,-0.52,0.07,0.87,-0.18,-0.18,0.24,L
20.512,255,255,255,255,255,-7.96,0.73,5.93,-0.01,0.00,-0.01,-8.82,-3.06,3.57,-0.03,-0.01,-0.04,-8.24,-2.28,5.32,0.01,0.01,-0.01,-5.33,-5.45,6.35,0.00,0.00,-0.01,-2.10,-3.53,8.93,-0.02,-0.01,0.00,-0.52,0.07,0.87,0.43,0.18,0.00,L
20.559,127,255,255,255,255,-7.88,0.67,5.98,-0.00,0.00,-0.01,-8.80,-3.01,3.55,-0.03,-0.01,-0.03,-8.17,-2.31,5.36,0.01,0.02,-0.01,-5.24,-5.48,6.35,0.00,0.00,0.01,-2.10,-3.50,8.96,-0.01,-0.01,0.00,-0.52,0.07,0.87,0.18,0.18,-0.12,L
20.611,127,255,255,0,255,-7.98,0.79,5.91,-0.01,0.01,-0.00,-8.86,-3.03,3.54,-0.03,0.00,-0.02,-8.24,-2.21,5.42,0.01,0.02,-0.01,-5.40,-5.48,6.34,0.00,0.00,0.00,-2.18,-3.48,8.96,-0.02,-0.01,0.01,-0.51,0.07,0.87,-0.18,0.24,-0.06,L
20.664,255,255,255,255,255,-8.00,0.72,5.92,-0.01,0.00,-0.00,-8.81,-3.05,3.52,-0.03,0.00,-0.03,-8.25,-2.25,5.33,0.01,0.02,-0.01,-5.37,-5.47,6.33,0.01,-0.00,0.00,-2.21,-3.47,8.94,-0.01,-0.01,0.00,-0.51,0.07,0.87,0.06,0.43,-0.12,L
20.713,127,255,255,255,255,-7.92,0.74,5.97,0.00,0.00,0.00,-8.85,-3.01,3.55,-0.02,0.00,-0.03,-8.26,-2.25,5.34,0.01,0.01,-0.01,-5.40,-5.44,6.32,0.00,-0.00,-0.00,-2.13,-3.40,8.96,-0.01,-0.01,0.01,-0.51,0.07,0.87,0.06,0.00,0.06,L
20.767,255,255,255,255,255,-8.00,0.79,5.89,-0.01,0.00,-0.00,-8.90,-2.96,3.54,-0.03,-0.01,-0.02,-8.18,-2.24,5.40,0.00,0.01,-0.01,-5.43,-5.46,6.31,0.00,-0.00,0.01,-2.13,-3.46,9.02,-0.03,-0.01,0.01,-0.51,0.07,0.87,-0.49,-0.06,0.18,L
20.817,255,255,255,255,255,-7.95,0.72,5.93,-0.02,-0.00,-0.00,-8.80,-2.97,3.52,-0.04,-0.01,-0.02,-8.17,-2.17,5.40,0.01,0.01,-0.01,-5.33,-5.44,6.40,-0.00,-0.01,0.01,-2.07,-3.49,9.01,-0.02,-0.01,0.01,-0.52,0.07,0.87,-0.24,0.18,0.49,L
20.87,255,255,255,0,255,-7.91,0.76,6.01,-0.01,0.00,0.00,-8.91,-3.09,3.58,-0.04,-0.01,-0.03,-8.18,-2.32,5.39,0.01,0.01,-0.01,-5.31,-5.50,6.33,0.00,-0.01,-0.01,-2.07,-3.51,8.98,0.02,-0.02,0.01,-0.52,0.07,0.87,0.18,-0.06,0.49,L
20.92,255,255,255,255,255,-7.93,0.71,5.93,-0.01,0.01,-0.00,-8.79,-3.03,3.56,-0.04,0.00,-0.02,-8.13,-2.24,5.36,0.00,0.02,-0.01,-5.31,-5.46,6.41,0.01,0.00,-0.00,-2.10,-3.46,8.94,-0.02,-0.01,0.00,-0.51,0.07,0.87,-0.06,0.43,0.24,L
20.974,255,255,255,0,255,-7.95,0.68,5.96,-0.01,0.01,0.00,-8.80,-3.05,3.51,-0.03,-0.01,-0.02,-8.18,-2.24,5.37,0.02,0.01,-0.01,-5.40,-5.43,6.38,0.01,-0.01,0.00,-2.10,-3.46,9.00,0.02,-0.01,0.01,-0.51,0.07,0.87,0.18,0.00,0.00,L
21.02,255,255,255,255,255,-7.98,0.83,5.94,-0.01,-0.00,-0.00,-8.83,-3.03,3.52,-0.03,0.00,-0.03,-8.19,-2.22,5.32,0.00,0.02,-0.01,-5.40,-5.41,6.42,0.01,-0.00,0.00,-2.17,-3.41,8.90,-0.03,-0.00,0.00,-0.51,0.07,0.87,0.06,0.24,0.06,L
21.072,255,255,255,255,255,-8.00,0.77,5.88,-0.00,-0.00,-0.00,-8.82,-2.99,3.53,-0.03,-0.01,-0.02,-8.15,-2.24,5.35,0.00,0.02,-0.01,-5.34,-5.42,6.34,-0.00,-0.00,0.01,-2.11,-3.49,8.94,-0.02,-0.01,0.01,-0.51,0.07,0.87,-0.43,0.06,0.00,L
21.125,0,255,255,255,255,-7.96,0.73,5.96,-0.00,0.00,0.00,-8.80,-3.04,3.58,-0.03,-0.01,-0.02,-8.20,-2.23,5.41,0.01,0.02,-0.01,-5.31,-5.47,6.37,0.00,-0.01,0.00,-2.12,-3.49,8.94,0.04,-0.03,0.02,-0.52,0.07,0.87,0.12,0.06,0.49,L
21.176,127,255,255,255,255,-7.95,0.77,5.95,-0.01,0.01,0.00,-8.84,-3.00,3.52,-0.04,-0.01,-0.02,-8.14,-2.20,5.44,0.01,0.01,-0.01,-5.37,-5.50,6.39,0.07,0.00,-0.00,-1.91,-3.91,8.91,0.11,0.02,0.05,-0.52,0.07,0.86,-0.18,-0.18,0.37,L
21.226,0,255,255,0,255,-7.99,0.72,5.85,-0.02,0.00,0.00,-8.86,-3.03,3.69,-0.04,0.00,-0.03,-8.21,-2.37,5.45,-0.00,0.03,0.01,-5.43,-5.77,6.31,-0.09,-0.01,-0.05,-2.09,-3.28,9.20,-0.04,0.02,0.01,-0.52,0.06,0.87,-1.04,0.55,-0.37,L
21.277,0,255,255,255,255,-7.91,0.71,5.93,-0.02,0.01,-0.01,-8.84,-3.09,3.48,-0.03,-0.02,-0.05,-8.12,-2.13,5.51,0.03,0.01,-0.02,-5.39,-5.57,6.45,0.02,0.01,0.02,-2.13,-3.33,9.03,-0.01,0.01,0.00,-0.52,0.06,0.86,0.12,-0.18,0.12,L
21.33,0,255,255,255,255,-7.92,0.72,5.94,-0.02,0.00,-0.00,-8.75,-3.02,3.52,-0.03,-0.01,-0.02,-8.15,-2.27,5.43,0.01,0.01,-0.01,-5.30,-5.47,6.36,-0.02,-0.01,0.00,-2.12,-3.44,8.96,-0.02,-0.00,0.01,-0.52,0.07,0.87,-0.12,0.24,0.37,L
21.378,255,255,255,255,255,-7.94,0.74,6.01,-0.01,0.02,0.00,-8.83,-3.03,3.55,-0.03,-0.00,-0.02,-8.27,-2.22,5.39,0.00,0.02,-0.01,-5.31,-5.43,6.35,0.00,0.00,0.01,-2.15,-3.40,8.98,-0.02,-0.01,0.01,-0.52,0.07,0.87,-0.31,0.00,0.31,L
21.43,255,255,255,0,255,-7.92,0.73,5.96,-0.01,0.00,0.00,-8.81,-3.03,3.50,-0.04,0.00,-0.02,-8.25,-2.26,5.41,0.01,0.02,0.00,-5.27,-5.41,6.34,0.00,-0.01,0.01,-2.10,-3.38,8.96,-0.03,-0.01,0.01,-0.52,0.07,0.87,-0.55,0.18,0.31,L
21.478,0,255,255,255,255,-7.95,0.72,6.00,-0.01,0.01,0.01,-8.81,-3.03,3.53,-0.03,0.00,-0.01,-8.18,-2.27,5.42,0.01,0.02,-0.01,-5.28,-5.47,6.41,0.01,0.00,0.01,-2.18,-3.44,8.97,-0.02,-0.00,0.00,-0.52,0.07,0.87,-0.24,-0.31,-0.06,L
21.532,0,255,255,255,255,-7.95,0.76,5.97,-0.00,0.01,-0.00,-8.87,-3.00,3.52,-0.03,0.00,-0.03,-8.21,-2.28,5.38,0.02,0.02,-0.01,-5.34,-5.45,6.42,0.00,0.00,-0.00,-2.06,-3.42,8.99,-0.02,-0.01,0.00,-0.52,0.07,0.87,0.37,-0.12,-0.12,L
21.581,0,255,255,0,255,-7.94,0.75,6.01,-0.00,0.01,-0.00,-8.80,-2.96,3.53,-0.02,-0.00,-0.02,-8.18,-2.18,5.35,0.01,0.02,-0.01,-5.31,-5.42,6.40,0.01,0.00,-0.01,-2.11,-3.41,9.01,-0.01,-0.01,0.00,-0.52,0.07,0.86,0.24,-0.37,-0.06,L
21.633,255,255,255,255,255,-7.94,0.74,6.00,-0.00,0.00,0.01,-8.83,-2.98,3.55,-0.02,-0.01,-0.02,-8.15,-2.27,5.38,0.01,0.01,-0.01,-5.31,-5.48,6.36,0.01,-0.00,0.00,-2.18,-3.46,9.00,-0.01,-0.01,0.00,-0.52,0.07,0.87,-0.12,0.06,0.06,L
21.683,255,255,255,255,255,-7.97,0.69,5.94,-0.00,0.01,0.00,-8.89,-3.01,3.57,-0.03,0.00,-0.02,-8.27,-2.26,5.39,0.01,0.02,-0.01,-5.34,-5.44,6.32,0.00,-0.00,0.00,-2.13,-3.41,9.01,-0.02,-0.01,0.01,-0.52,0.07,0.87,0.12,0.00,0.12,L
21.736,255,255,255,255,255,-7.92,0.66,5.93,-0.01,0.01,-0.00,-8.84,-3.00,3.55,-0.03,0.01,-0.02,-8.27,-2.21,5.36,0.01,0.02,-0.00,-5.35,-5.47,6.40,0.01,0.00,0.01,-2.15,-3.38,8.99,-0.01,-0.01,0.01,-0.52,0.07,0.87,0.06,0.00,-0.06,L
21.785,255,255,255,255,255,-7.96,0.70,5.97,-0.01,0.01,-0.00,-8.84,-2.96,3.54,-0.03,0.00,-0.02,-8.21,-2.26,5.38,0.01,0.02,-0.01,-5.30,-5.40,6.34,-0.00,-0.00,-0.00,-2.17,-3.41,8.99,-0.02,-0.01,0.00,-0.52,0.07,0.87,-0.12,-0.18,0.00,L
21.836,0,255,255,0,255,-7.92,0.74,5.94,-0.01,0.01,-0.00,-8.87,-2.99,3.54,-0.03,-0.00,-0.02,-8.23,-2.26,5.35,0.01,0.02,-0.01,-5.31,-5.49,6.34,0.01,0.00,0.01,-2.12,-3.41,8.97,-0.01,-0.01,0.00,-0.52,0.07,0.87,-0.31,-0.18,-0.06,L
21.885,0,255,255,0,255,-7.92,0.74,5.92,-0.01,0.01,-0.01,-8.87,-3.03,3.54,-0.02,0.00,-0.02,-8.21,-2.20,5.38,0.01,0.02,-0.00,-5.38,-5.38,6.34,0.01,0.00,0.00,-2.15,-3.41,8.97,-0.02,-0.01,0.00,-0.52,0.07,0.87,0.06,0.00,-0.06,L
21.938,127,255,255,0,255,-8.00,0.73,5.92,-0.01,0.01,-0.00,-8.83,-2.97,3.54,-0.02,-0.01,-0.03,-8.21,-2.22,5.37,0.01,0.01,-0.01,-5.31,-5.39,6.38,0.01,-0.01,0.00,-2.17,-3.40,9.04,-0.02,-0.01,0.01,-0.52,0.07,0.87,-0.24,-0.43,0.12,L
21.989,255,255,255,255,255,-8.00,0.78,5.98,-0.01,0.01,-0.00,-8.90,-2.98,3.53,-0.03,-0.01,-0.02,-8.27,-2.26,5.40,0.00,0.02,-0.01,-5.33,-5.47,6.34,0.00,-0.00,0.00,-2.11,-3.44,9.00,-0.01,-0.01,0.01,-0.52,0.07,0.87,-0.31,-0.37,0.31,L
22.04,127,255,255,255,255,-7.92,0.70,5.99,-0.02,0.00,-0.01,-8.78,-3.01,3.53,-0.04,-0.00,-0.02,-8.16,-2.33,5.36,-0.00,0.01,-0.01,-5.27,-5.46,6.32,-0.00,-0.01,0.00,-2.14,-3.42,8.98,-0.02,-0.01,0.00,-0.52,0.07,0.86,0.00,-0.24,0.31,L
22.092,0,255,255,0,255,-7.92,0.71,5.93,-0.01,0.01,0.00,-8.78,-3.05,3.54,-0.03,-0.01,-0.02,-8.21,-2.22,5.38,0.01,0.01,-0.01,-5.32,-5.47,6.38,0.01,-0.00,0.00,-2.09,-3.43,9.02,-0.02,-0.01,0.01,-0.52,0.07,0.86,-0.43,-0.06,0.06,L
22.144,255,255,255,255,255,-7.96,0.72,5.98,-0.00,0.01,-0.00,-8.85,-3.03,3.56,-0.03,0.00,-0.02,-8.18,-2.23,5.39,0.00,0.01,-0.01,-5.36,-5.43,6.37,0.01,-0.00,0.00,-2.12,-3.37,8.93,-0.01,-0.01,0.01,-0.52,0.07,0.87,-0.31,-0.12,0.12,L
22.193,255,255,255,0,255,-7.97,0.75,6.01,-0.01,0.01,-0.00,-8.80,-3.03,3.51,-0.03,-0.01,-0.02,-8.13,-2.26,5.43,0.01,0.01,-0.01,-5.26,-5.46,6.35,0.00,-0.01,-0.00,-2.08,-3.47,8.94,-0.02,-0.02,0.01,-0.52,0.07,0.86,-0.43,-0.31,0.00,L
22.243,255,255,255,255,255,-8.01,0.76,6.01,-0.01,0.01,0.00,-8.87,-3.01,3.50,-0.03,-0.01,-0.02,-8.21,-2.26,5.40,0.01,0.02,-0.01,-5.32,-5.48,6.39,0.02,-0.00,-0.00,-2.10,-3.50,8.97,-0.03,-0.01,0.00,-0.52,0.07,0.86,0.00,-0.24,-0.12,L
22.293,255,255,255,255,255,-7.89,0.68,6.00,-0.01,0.00,-0.01,-8.84,-2.99,3.61,-0.03,-0.01,-0.03,-8.15,-2.24,5.32,0.01,0.02,-0.01,-5.31,-5.44,6.35,0.01,-0.01,0.00,-2.07,-3.40,8.97,-0.01,-0.01,0.01,-0.52,0.07,0.86,0.06,-0.12,0.00,L
22.347,255,255,255,255,255,-7.92,0.74,5.95,-0.01,0.01,-0.01,-8.74,-2.94,3.61,-0.03,0.00,-0.02,-8.18,-2.26,5.46,0.02,0.02,-0.01,-5.33,-5.42,6.41,0.01,0.00,0.01,-2.08,-3.41,8.98,-0.01,-0.01,0.01,-0.52,0.07,0.86,0.06,-0.18,-0.06,L
22.4,255,255,255,0,255,-7.92,0.76,5.93,-0.01,0.01,0.00,-8.81,-3.03,3.62,-0.03,0.00,-0.02,-8.14,-2.28,5.37,0.01,0.03,-0.01,-5.27,-5.47,6.33,0.00,0.00,0.00,-2.13,-3.45,9.01,-0.01,-0.01,0.01,-0.52,0.07,0.87,0.24,0.31,0.06,L
22.456,0,255,255,255,255,-7.97,0.69,5.91,-0.01,0.01,-0.01,-8.78,-3.03,3.55,-0.03,0.01,-0.02,-8.24,-2.25,5.34,0.01,0.02,-0.00,-5.21,-5.46,6.34,-0.00,0.00,0.01,-2.15,-3.40,8.95,-0.02,-0.00,0.00,-0.52,0.06,0.86,0.12,0.12,0.06,L
22.502,255,255,255,255,255,-7.98,0.70,5.91,-0.00,0.01,-0.01,-8.86,-3.04,3.52,-0.04,0.01,-0.02,-8.27,-2.25,5.38,0.02,0.03,-0.01,-5.38,-5.48,6.37,0.00,0.00,0.00,-2.13,-3.37,9.05,-0.02,-0.01,0.00,-0.52,0.07,0.87,0.18,0.18,-0.12,L
22.554,255,255,255,255,255,-7.98,0.73,5.95,-0.01,0.01,-0.00,-8.82,-3.06,3.55,-0.03,0.00,-0.02,-8.19,-2.21,5.37,0.01,0.02,-0.01,-5.28,-5.46,6.37,0.00,0.00,0.01,-2.11,-3.39,8.98,-0.01,-0.00,0.00,-0.52,0.07,0.86,0.24,-0.06,0.24,L
22.606,0,255,255,255,255,-7.98,0.78,5.94,-0.01,0.02,0.00,-8.85,-3.01,3.53,-0.03,-0.00,-0.01,-8.26,-2.14,5.41,0.01,0.01,-0.01,-5.34,-5.44,6.37,0.00,0.00,0.01,-2.08,-3.42,8.95,-0.03,-0.01,0.00,-0.52,0.07,0.87,-0.12,-0.18,0.12,L
22.654,255,255,255,255,255,-7.97,0.74,5.95,-0.00,0.01,0.00,-8.84,-2.98,3.52,-0.02,0.00,-0.02,-8.22,-2.25,5.41,0.01,0.01,-0.01,-5.29,-5.44,6.39,-0.00,-0.00,0.00,-2.12,-3.34,8.94,-0.02,-0.01,0.01,-0.52,0.07,0.86,-0.31,0.00,0.12,L
22.704,0,255,255,0,255,-7.96,0.67,5.92,-0.01,0.01,0.00,-8.82,-3.01,3.51,-0.03,-0.00,-0.02,-8.25,-2.30,5.41,0.01,0.02,-0.01,-5.32,-5.47,6.37,0.00,-0.00,0.01,-2.13,-3.44,8.94,-0.01,-0.01,0.01,-0.52,0.07,0.87,-0.18,0.00,0.00,L
22.753,0,255,255,255,255,-7.93,0.74,5.96,-0.01,0.02,0.00,-8.86,-3.06,3.51,-0.03,0.00,-0.02,-8.21,-2.25,5.31,0.01,0.02,-0.01,-5.33,-5.45,6.39,-0.00,-0.01,0.01,-2.13,-3.43,9.02,-0.02,-0.01,0.01,-0.52,0.07,0.86,-0.24,0.00,0.24,L
22.812,255,255,255,255,255,-7.94,0.67,5.94,-0.01,0.01,-0.01,-8.84,-2.95,3.59,-0.03,0.00,-0.02,-8.17,-2.21,5.42,0.01,0.02,-0.01,-5.29,-5.46,6.30,0.01,0.00,0.00,-2.14,-3.37,8.93,-0.01,-0.01,0.00,-0.52,0.07,0.87,0.18,0.12,0.12,L
22.857,127,255,255,255,255,-7.92,0.75,5.93,-0.01,0.00,-0.01,-8.89,-3.02,3.53,-0.03,-0.01,-0.03,-8.19,-2.27,5.40,0.01,0.01,-0.01,-5.31,-5.43,6.34,0.01,-0.00,0.00,-2.11,-3.44,8.94,-0.01,-0.01,0.00,-0.52,0.07,0.86,0.18,-0.12,0.00,L
22.908,0,255,255,255,255,-7.94,0.73,5.98,-0.01,0.01,-0.00,-8.85,-3.00,3.52,-0.03,-0.01,-0.01,-8.16,-2.27,5.41,0.01,0.02,-0.01,-5.31,-5.51,6.36,0.00,0.00,0.00,-2.11,-3.43,8.96,-0.02,-0.01,0.01,-0.52,0.07,0.87,-0.18,0.18,0.06,L
22.965,255,255,255,255,255,-7.94,0.72,5.94,-0.01,0.01,0.00,-8.83,-3.02,3.51,-0.03,0.00,-0.02,-8.23,-2.23,5.36,0.01,0.02,-0.00,-5.32,-5.48,6.32,0.01,0.00,0.01,-2.15,-3.37,8.93,-0.03,-0.01,0.01,-0.52,0.07,0.86,-0.49,-0.24,0.12,L
23.017,255,255,255,255,255,-7.90,0.72,5.98,-0.01,0.01,0.01,-8.83,-3.01,3.55,-0.03,0.00,-0.02,-8.21,-2.27,5.38,0.00,0.02,-0.00,-5.28,-5.44,6.32,0.01,-0.01,0.01,-2.11,-3.43,8.94,-0.01,-0.01,0.01,-0.52,0.07,0.86,-0.61,-0.18,-0.06,L
23.068,255,255,255,255,255,-7.96,0.79,5.94,-0.01,0.01,0.00,-8.89,-2.99,3.56,-0.02,-0.00,-0.02,-8.21,-2.24,5.42,0.01,0.01,-0.01,-5.40,-5.43,6.35,0.01,-0.00,0.00,-2.09,-3.47,8.93,-0.02,-0.01,0.00,-0.52,0.07,0.87,0.12,-0.18,0.00,L
23.117,255,255,255,255,255,-7.89,0.75,5.94,0.00,0.01,-0.01,-8.76,-2.97,3.55,-0.03,-0.00,-0.02,-8.20,-2.27,5.44,0.01,0.01,-0.01,-5.30,-5.47,6.39,0.01,-0.00,0.00,-2.02,-3.43,8.95,-0.01,-0.01,0.00,-0.52,0.07,0.86,0.18,0.00,0.06,L
23.167,0,255,255,255,255,-7.92,0.71,5.94,-0.01,0.00,0.00,-8.89,-2.97,3.52,-0.03,-0.00,-0.01,-8.21,-2.24,5.43,0.01,0.02,-0.00,-5.33,-5.40,6.40,0.00,-0.00,0.01,-2.12,-3.40,9.02,-0.02,-0.01,0.01,-0.52,0.07,0.87,-0.31,0.06,0.24,L
23.218,255,255,255,0,255,-7.96,0.75,5.98,-0.02,0.01,0.00,-8.80,-2.98,3.56,-0.03,-0.00,-0.02,-8.18,-2.29,5.37,0.00,0.02,-0.01,-5.33,-5.49,6.38,0.00,-0.00,0.01,-2.13,-3.46,8.89,-0.01,-0.00,0.01,-0.52,0.07,0.86,-0.43,0.12,0.43,L
23.27,0,255,255,255,255,-7.92,0.72,5.99,-0.02,0.01,0.00,-8.86,-3.08,3.53,-0.03,0.00,-0.02,-8.22,-2.27,5.40,0.01,0.01,-0.01,-5.28,-5.44,6.40,0.00,-0.01,0.01,-2.15,-3.43,8.96,-0.02,-0.01,0.01,-0.52,0.07,0.87,-0.24,0.06,0.43,L
23.317,255,255,255,0,255,-7.98,0.75,6.01,-0.01,0.02,0.00,-8.83,-3.01,3.55,-0.03,0.01,-0.02,-8.18,-2.23,5.41,0.01,0.02,-0.01,-5.37,-5.40,6.38,0.00,0.00,0.00,-2.13,-3.46,8.94,-0.02,-0.01,0.00,-0.52,0.07,0.86,0.06,0.24,0.06,L
23.366,255,255,255,255,255,-7.94,0.69,5.89,-0.00,0.01,-0.00,-8.89,-3.06,3.58,-0.03,0.00,-0.02,-8.26,-2.26,5.41,0.01,0.02,-0.00,-5.32,-5.46,6.35,0.01,-0.00,0.00,-2.15,-3.41,8.99,-0.02,0.00,0.00,-0.52,0.07,0.87,0.06,0.18,-0.06,L
23.423,255,255,255,255,255,-7.94,0.75,5.90,-0.01,0.01,-0.00,-8.82,-3.06,3.52,-0.03,0.00,-0.02,-8.15,-2.19,5.34,0.01,0.02,-0.01,-5.29,-5.49,6.36,0.00,-0.00,0.01,-2.11,-3.36,8.97,-0.01,-0.01,0.00,-0.52,0.07,0.86,-0.12,0.06,0.12,L
23.47,127,255,255,255,255,-8.01,0.73,5.90,-0.00,0.01,0.00,-8.84,-3.02,3.47,-0.03,-0.00,-0.02,-8.22,-2.21,5.30,0.01,0.01,-0.01,-5.39,-5.45,6.35,0.01,-0.01,0.01,-2.11,-3.44,8.99,-0.02,-0.00,0.01,-0.52,0.07,0.87,-0.37,0.24,0.24,L
23.522,127,255,255,255,255,-8.00,0.70,5.97,-0.01,0.01,-0.00,-8.82,-3.06,3.49,-0.03,-0.01,-0.02,-8.18,-2.25,5.37,0.01,0.01,-0.01,-5.29,-5.49,6.35,0.01,-0.01,0.01,-2.14,-3.41,8.92,-0.02,-0.01,0.01,-0.52,0.07,0.86,-0.61,-0.37,0.24,L
23.57,255,255,255,0,255,-7.88,0.75,5.98,-0.01,0.01,0.01,-8.83,-2.95,3.57,-0.03,-0.01,-0.01,-8.21,-2.27,5.45,0.00,0.02,0.00,-5.25,-5.43,6.37,-0.00,-0.00,0.01,-2.10,-3.51,9.00,-0.01,-0.00,0.01,-0.52,0.07,0.86,-0.37,0.00,0.37,L
23.619,127,255,255,255,255,-7.89,0.78,6.04,-0.00,0.01,-0.01,-8.83,-3.02,3.55,-0.03,0.00,-0.03,-8.20,-2.29,5.37,0.01,0.02,-0.01,-5.32,-5.49,6.40,-0.00,0.00,-0.00,-2.11,-3.43,8.96,-0.02,-0.01,0.00,-0.52,0.07,0.86,0.49,0.00,0.18,L
23.671,0,255,255,255,255,-7.89,0.68,5.92,-0.00,0.01,0.00,-8.79,-3.02,3.50,-0.03,-0.00,-0.02,-8.15,-2.19,5.34,0.02,0.01,-0.01,-5.35,-5.43,6.40,0.02,-0.00,0.00,-2.15,-3.39,9.01,-0.00,-0.00,0.00,-0.52,0.07,0.86,-0.06,0.37,-0.12,L
23.72,255,255,255,0,255,-7.94,0.71,5.97,-0.01,0.01,0.00,-8.83,-3.04,3.55,-0.03,0.00,-0.01,-8.28,-2.29,5.39,0.01,0.02,-0.01,-5.40,-5.51,6.36,0.00,0.01,0.01,-2.13,-3.42,8.92,-0.01,-0.01,0.01,-0.52,0.06,0.87,-0.31,0.24,0.18,L
23.773,0,255,255,255,255,-7.92,0.76,5.95,-0.01,0.01,0.00,-8.79,-3.01,3.51,-0.03,-0.00,-0.02,-8.18,-2.20,5.33,0.01,0.02,-0.00,-5.32,-5.46,6.35,0.01,-0.00,0.01,-2.15,-3.39,8.98,-0.01,0.00,0.01,-0.52,0.07,0.87,-0.49,0.00,0.24,L
23.831,255,255,255,255,255,-7.95,0.69,5.94,-0.01,0.01,0.00,-8.82,-3.00,3.50,-0.03,0.00,-0.02,-8.26,-2.26,5.39,0.01,0.02,0.00,-5.36,-5.45,6.34,0.00,-0.00,0.00,-2.14,-3.46,9.00,-0.01,-0.01,0.01,-0.52,0.07,0.86,-0.37,0.06,0.18,L
23.886,255,255,255,255,255,-7.93,0.77,5.97,-0.01,0.01,0.00,-8.80,-3.00,3.54,-0.03,0.00,-0.02,-8.25,-2.25,5.40,0.01,0.02,-0.01,-5.32,-5.42,6.31,0.00,-0.00,0.01,-2.12,-3.42,8.94,-0.03,-0.01,0.01,-0.52,0.07,0.86,-0.06,0.31,0.18,L
23.93,255,255,255,255,255,-7.92,0.72,5.99,-0.01,0.01,0.00,-8.79,-3.01,3.57,-0.02,0.00,-0.02,-8.22,-2.26,5.31,0.01,0.02,-0.01,-5.34,-5.43,6.32,0.01,-0.00,0.01,-2.12,-3.42,8.94,-0.01,-0.01,0.01,-0.52,0.07,0.87,-0.06,0.18,0.00,L
23.986,0,255,255,255,255,-7.91,0.74,5.99,-0.00,0.01,-0.00,-8.85,-3.00,3.58,-0.03,0.00,-0.02,-8.16,-2.25,5.42,0.01,0.03,-0.00,-5.31,-5.44,6.33,0.01,0.00,0.01,-2.15,-3.46,8.97,-0.01,-0.01,0.01,-0.52,0.06,0.86,-0.06,0.12,0.00,L
24.03,0,255,255,255,255,-7.93,0.74,5.96,-0.01,0.01,-0.00,-8.88,-3.02,3.43,-0.03,0.00,-0.02,-8.24,-2.27,5.32,0.01,0.02,-0.01,-5.40,-5.42,6.29,0.01,0.00,0.00,-2.17,-3.39,9.02,-0.01,-0.01,0.01,-0.52,0.07,0.87,0.24,-0.06,0.06,L
24.081,0,255,255,255,255,-7.96,0.70,5.90,-0.01,0.01,0.00,-8.84,-2.99,3.54,-0.03,0.00,-0.02,-8.23,-2.26,5.37,0.02,0.02,-0.01,-5.36,-5.47,6.35,0.01,-0.00,0.00,-2.18,-3.39,8.96,-0.02,-0.01,0.00,-0.52,0.07,0.86,0.06,0.06,0.00,L
24.13,255,255,255,255,255,-7.96,0.72,5.96,-0.01,0.01,-0.00,-8.81,-3.01,3.53,-0.03,0.00,-0.02,-8.19,-2.23,5.36,0.01,0.02,-0.01,-5.32,-5.40,6.39,0.00,0.00,-0.00,-2.12,-3.40,8.94,-0.02,-0.01,0.01,-0.52,0.07,0.87,-0.06,0.00,-0.12,L
24.182,255,255,255,255,255,-7.93,0.73,5.95,-0.01,0.01,0.00,-8.83,-3.01,3.52,-0.02,0.00,-0.01,-8.23,-2.26,5.35,0.01,0.01,-0.01,-5.31,-5.46,6.35,0.01,-0.00,0.00,-2.09,-3.37,8.97,-0.02,-0.01,0.01,-0.52,0.07,0.86,-0.18,-0.18,-0.06,L
24.239,0,255,255,255,255,-7.99,0.68,5.91,-0.00,0.01,0.00,-8.80,-3.03,3.54,-0.03,0.00,-0.02,-8.24,-2.28,5.42,0.01,0.02,-0.01,-5.31,-5.49,6.37,0.00,-0.00,0.01,-2.13,-3.39,9.03,-0.01,-0.01,0.00,-0.52,0.07,0.86,0.00,0.06,-0.06,L
24.285,255,255,255,255,255,-7.95,0.74,5.95,-0.00,0.00,-0.01,-8.87,-3.02,3.50,-0.03,0.00,-0.02,-8.22,-2.28,5.34,0.01,0.02,-0.02,-5.30,-5.47,6.40,0.01,-0.00,0.00,-2.14,-3.39,9.01,-0.01,-0.01,0.00,-0.52,0.07,0.87,0.24,-0.18,-0.18,L
24.334,255,255,255,255,255,-7.96,0.76,5.94,-0.00,0.01,0.00,-8.82,-3.02,3.54,-0.02,-0.00,-0.02,-8.20,-2.26,5.33,0.01,0.02,-0.01,-5.36,-5.41,6.32,0.00,0.00,0.01,-2.17,-3.47,9.06,0.00,-0.00,0.01,-0.52,0.07,0.87,0.00,0.18,-0.12,L
24.384,255,255,255,0,255,-8.00,0.70,5.95,-0.01,0.02,0.00,-8.92,-3.02,3.54,-0.02,0.00,-0.02,-8.26,-2.15,5.34,0.02,0.01,-0.01,-5.35,-5.38,6.34,0.01,-0.00,-0.00,-2.19,-3.37,8.93,-0.04,-0.01,-0.01,-0.52,0.07,0.86,0.31,-0.37,-0.06,L
24.434,0,255,255,255,255,-7.97,0.76,5.93,-0.01,-0.00,-0.01,-8.78,-3.01,3.54,-0.03,-0.00,-0.02,-8.20,-2.29,5.43,0.01,0.01,-0.01,-5.35,-5.45,6.38,0.01,0.00,0.00,-2.13,-3.46,8.96,-0.00,-0.01,0.01,-0.52,0.07,0.86,-0.06,0.00,-0.12,L
24.489,255,255,255,255,255,-7.98,0.71,5.96,-0.01,0.01,-0.00,-8.77,-2.98,3.55,-0.03,0.00,-0.03,-8.20,-2.21,5.38,0.01,0.02,-0.01,-5.34,-5.45,6.42,0.01,-0.00,0.00,-2.10,-3.43,8.95,-0.02,-0.01,0.01,-0.52,0.07,0.87,-0.18,0.00,-0.12,L
24.543,0,255,255,255,255,-7.89,0.69,5.99,-0.01,0.01,-0.00,-8.87,-3.01,3.52,-0.03,0.00,-0.02,-8.25,-2.26,5.35,0.01,0.02,-0.01,-5.38,-5.48,6.34,0.01,0.00,-0.00,-2.13,-3.49,8.96,-0.02,-0.01,0.01,-0.52,0.07,0.86,0.00,-0.24,0.00,L
24.588,0,255,255,255,255,-7.99,0.68,5.94,-0.00,0.01,0.00,-8.87,-3.02,3.53,-0.03,0.00,-0.02,-8.20,-2.25,5.34,0.01,0.02,-0.00,-5.37,-5.45,6.36,0.01,-0.00,0.00,-2.17,-3.43,8.95,-0.02,-0.01,0.01,-0.52,0.07,0.86,-0.24,0.18,-0.24,L
24.642,255,255,255,255,255,-7.99,0.74,5.96,0.00,0.01,0.00,-8.83,-3.01,3.46,-0.02,0.00,-0.02,-8.15,-2.23,5.42,0.01,0.01,-0.01,-5.34,-5.44,6.38,0.00,0.00,0.00,-2.16,-3.42,9.01,-0.03,-0.01,0.00,-0.52,0.07,0.87,-0.12,-0.12,-0.18,L
24.691,255,255,255,255,255,-7.90,0.77,5.96,-0.01,0.01,-0.00,-8.80,-3.00,3.51,-0.03,-0.00,-0.02,-8.16,-2.22,5.40,0.01,0.02,-0.01,-5.33,-5.38,6.34,0.01,0.01,0.00,-2.06,-3.40,8.95,-0.01,-0.01,0.00,-0.52,0.07,0.86,-0.12,-0.12,-0.06,L
24.746,255,255,255,255,255,-7.97,0.75,5.97,-0.01,0.00,-0.01,-8.82,-3.04,3.49,-0.03,-0.00,-0.02,-8.21,-2.27,5.39,0.01,0.02,-0.01,-5.37,-5.51,6.41,0.00,0.00,0.01,-2.16,-3.51,8.96,-0.01,-0.01,0.01,-0.52,0.07,0.86,0.12,0.12,0.00,L
24.794,127,255,255,255,255,-7.92,0.76,5.93,-0.01,0.00,-0.00,-8.83,-3.08,3.54,-0.03,0.00,-0.03,-8.22,-2.27,5.33,0.01,0.02,-0.00,-5.33,-5.50,6.31,-0.01,0.00,0.00,-2.16,-3.41,8.97,-0.01,-0.01,0.00,-0.52,0.06,0.86,0.00,0.06,-0.06,L
