Timestamp,Thumb Flex,Pointer Flex,Middle Flex,Ring Flex,Pinky Flex,Thumb Acc. X,Thumb Acc. Y,Thumb Acc. Z,Thumb Gyro X,Thumb Gyro Y,Thumb Gyro Z,Pointer Acc. X,Pointer Acc. Y,Pointer Acc. Z,Pointer Gyro X,Pointer Gyro Y,Pointer Gyro Z,Middle Acc. X,Middle Acc. Y,Middle Acc. Z,Middle Gyro X,Middle Gyro Y,Middle Gyro Z,Ring Acc. X,Ring Acc. Y,Ring Acc. Z,Ring Gyro X,Ring Gyro Y,Ring Gyro Z,Pinky Acc. X,Pinky Acc. Y,Pinky Acc. Z,Pinky Gyro X,Pinky Gyro Y,Pinky Gyro Z,Wrist Gyro X,Wrist Gyro Y,Wrist Gyro Z,Wrist Acc. X,Wrist Acc. Y,Wrist Acc. Z,Hand
0.058,204,61,30,184,131,-3.57,-1.60,9.17,0.01,-0.05,0.06,-5.40,3.99,7.08,-0.03,0.05,0.07,-5.37,6.46,4.98,-0.04,0.05,0.04,-3.66,6.36,6.44,-0.01,0.04,0.03,-3.33,7.55,5.42,0.01,0.03,-0.01,0.63,0.17,0.78,1.53,1.59,0.67,R
0.104,204,61,31,183,130,-3.53,-1.44,9.06,0.02,-0.01,-0.04,-5.35,4.08,6.97,-0.01,0.02,-0.06,-5.24,6.72,4.76,-0.04,-0.03,-0.05,-3.47,6.60,6.11,-0.04,-0.02,-0.04,-3.05,7.56,5.07,-0.01,0.01,-0.01,0.60,0.18,0.78,-0.37,-2.20,-0.92,R
0.158,205,61,31,183,131,-3.65,-1.64,9.47,0.05,-0.12,0.04,-5.58,4.00,7.15,0.01,0.02,0.04,-5.44,6.61,4.92,-0.01,0.02,0.02,-3.63,6.60,6.50,0.02,0.02,0.01,-3.33,7.81,5.62,0.02,0.03,-0.01,0.62,0.17,0.78,0.61,2.01,0.18,R
0.208,203,63,30,182,129,-3.18,-1.51,8.93,0.01,0.01,-0.05,-5.13,3.75,6.88,-0.01,0.05,-0.06,-5.01,6.27,4.69,-0.04,0.01,-0.06,-3.33,6.23,6.01,-0.01,0.02,-0.06,-3.03,7.27,5.28,0.00,0.03,-0.06,0.59,0.18,0.76,0.67,-2.08,-1.77,R
0.26,204,63,30,182,130,-3.85,-1.32,9.73,-0.01,0.01,0.07,-5.54,4.21,7.35,-0.05,-0.01,0.06,-5.33,6.67,4.80,-0.03,0.04,0.03,-3.64,6.48,6.25,0.02,0.06,0.01,-3.33,7.57,5.28,0.05,0.07,-0.02,0.62,0.17,0.78,4.03,3.05,-0.12,R
0.312,203,62,30,181,128,-3.56,-1.32,9.33,0.12,-0.16,0.05,-5.72,3.92,7.47,-0.13,-0.06,0.08,-5.39,6.74,4.68,-0.04,-0.04,-0.02,-3.69,6.72,6.41,-0.03,0.01,-0.03,-3.41,7.80,5.53,-0.02,0.01,-0.01,0.64,0.17,0.80,-0.18,0.37,0.31,R
0.364,203,65,31,184,131,-3.90,-1.48,9.95,0.03,-0.20,0.11,-5.64,4.79,7.58,-0.15,-0.15,0.08,-5.46,6.68,5.13,-0.03,-0.01,0.07,-3.56,6.58,6.28,0.03,0.04,0.08,-3.39,7.44,5.43,0.08,0.07,0.06,0.59,0.18,0.78,2.01,4.52,1.71,R
0.416,197,61,31,183,128,-3.23,-1.13,9.37,0.22,-0.34,0.16,-4.87,4.26,7.12,-0.14,-0.66,-0.01,-5.33,6.57,4.93,-0.06,-0.07,-0.01,-3.56,6.53,6.26,-0.04,-0.03,0.00,-3.30,7.47,5.34,-0.04,-0.02,0.01,0.61,0.17,0.78,-2.50,2.62,1.71,R
0.467,194,64,30,182,130,-3.94,-0.61,10.64,0.20,-0.43,0.10,-5.26,3.64,8.38,-0.13,-1.03,-0.05,-5.25,6.73,5.01,-0.10,-0.31,0.00,-3.33,6.43,5.96,-0.05,-0.08,-0.01,-2.87,7.50,4.58,0.02,-0.03,0.05,0.60,0.17,0.77,-0.43,0.79,0.24,R
0.514,194,67,31,183,131,-2.11,-1.22,8.58,0.32,-1.81,0.65,-4.01,4.00,7.97,-0.11,-1.03,0.22,-4.90,6.38,5.16,0.02,-0.38,0.05,-3.56,6.62,6.45,0.01,-0.06,-0.01,-3.42,7.77,5.80,0.04,-0.01,-0.01,0.66,0.18,0.78,-2.75,8.91,1.04,R
0.566,206,70,32,184,129,-1.40,-1.65,9.98,0.08,-1.33,0.51,-3.98,3.78,8.67,0.02,-0.84,-0.02,-5.22,6.91,5.37,-0.05,-0.62,-0.02,-3.31,6.13,6.34,-0.05,-0.20,-0.06,-2.94,7.85,4.94,0.06,-0.17,-0.02,0.60,0.18,0.75,1.40,0.43,-1.53,R
0.618,213,75,33,184,131,-0.26,-0.98,8.69,0.59,-2.36,0.88,-3.51,4.05,8.62,0.28,-0.84,0.09,-4.01,7.82,4.83,0.34,-0.44,0.35,-2.73,7.21,4.65,0.36,0.14,0.22,-2.18,7.27,3.12,0.60,0.39,0.24,0.58,0.21,0.77,-0.12,29.24,2.44,R
0.671,234,79,33,185,131,0.53,-0.84,9.61,0.81,-1.73,1.03,-3.30,3.78,8.36,0.75,-0.76,0.47,-4.38,5.39,5.81,0.26,-0.67,0.77,-3.77,9.99,8.97,0.50,-0.01,0.14,-3.85,9.25,6.67,0.50,0.25,0.08,0.72,0.16,0.75,4.03,43.95,2.44,R
0.72,247,83,35,185,132,0.96,0.41,10.65,0.51,-1.78,0.80,-2.19,5.22,8.06,0.06,-1.00,0.20,-2.36,7.67,7.20,0.03,-1.46,0.05,-3.06,6.56,5.57,-0.04,-0.10,0.05,-2.46,7.42,3.32,0.17,-0.06,0.18,0.64,0.19,0.71,-3.85,7.26,5.00,R
0.773,255,87,36,185,133,2.01,0.21,9.28,0.71,-1.23,0.45,-1.93,4.03,7.51,0.49,-0.59,0.39,-2.87,6.21,4.61,0.47,-0.37,0.45,-3.31,7.73,6.17,0.44,0.19,0.18,-3.15,8.15,4.79,0.52,0.39,0.07,0.70,0.18,0.71,3.60,34.73,1.89,R
0.825,255,92,37,186,132,1.76,0.82,10.87,0.68,-1.03,0.41,-1.96,5.54,8.15,0.43,-0.22,0.15,-4.13,7.58,5.65,0.22,-0.05,0.12,-3.30,7.32,5.85,0.21,0.03,0.08,-3.05,8.78,4.75,0.26,0.15,0.12,0.71,0.18,0.68,1.40,21.79,-0.06,R
0.877,255,95,38,184,134,3.03,0.02,8.97,0.21,-0.83,0.48,-1.70,4.85,7.88,0.21,-0.10,0.13,-3.35,6.90,4.75,0.15,0.03,0.13,-3.04,6.71,5.32,0.18,0.08,0.08,-2.90,7.84,3.74,0.24,0.13,0.03,0.72,0.19,0.69,-0.37,14.22,1.22,R
0.926,255,96,38,184,133,3.31,0.02,9.41,0.31,-0.21,0.00,-1.77,4.78,7.81,0.34,0.09,0.05,-3.52,7.72,4.71,0.24,0.13,0.07,-3.14,8.00,5.40,0.24,0.11,0.05,-3.06,8.97,4.43,0.22,0.19,0.03,0.73,0.18,0.66,4.15,15.87,-1.59,R
0.977,255,96,38,186,131,3.64,0.95,8.31,0.28,-0.26,-0.09,-1.75,5.18,7.93,0.09,0.10,0.01,-3.73,7.40,4.96,-0.00,0.00,0.00,-3.19,7.59,5.40,0.02,0.00,-0.02,-3.12,8.52,4.25,-0.04,0.02,-0.01,0.75,0.18,0.67,-0.06,1.59,0.85,R
1.03,255,96,38,187,134,3.28,1.19,8.37,0.06,0.83,-0.71,-1.62,5.03,7.60,-0.05,0.25,-0.14,-3.54,7.49,4.66,-0.05,0.07,-0.14,-3.28,7.61,5.54,-0.05,0.02,-0.12,-3.23,8.63,4.32,-0.09,-0.01,-0.12,0.73,0.18,0.65,2.14,-4.39,-2.56,R
1.08,255,96,42,187,133,2.95,-0.03,11.06,0.51,-0.27,-0.88,-1.96,4.86,7.78,-0.04,0.39,-0.13,-3.90,6.54,4.59,-0.10,-0.01,-0.24,-3.99,6.59,6.46,-0.03,-0.09,-0.24,-3.83,8.00,4.88,-0.11,-0.21,-0.18,0.78,0.16,0.66,-6.04,1.95,-4.70,R
1.129,255,98,38,187,132,2.20,2.09,10.00,1.39,-1.18,-3.09,-2.45,4.29,8.24,-0.10,0.47,-0.75,-3.63,7.24,4.70,-0.07,-0.28,-0.56,-3.09,7.82,5.12,0.02,-0.31,-0.48,-2.87,8.46,3.59,-0.07,-0.34,-0.33,0.70,0.20,0.68,-16.60,-2.14,-11.96,R
1.18,255,99,38,187,131,3.43,1.41,8.53,0.67,-0.82,-2.17,-2.76,5.01,7.55,-0.08,0.41,-0.64,-4.25,7.51,4.99,-0.07,-0.31,-0.46,-3.95,7.86,5.92,-0.09,-0.35,-0.47,-3.62,8.52,5.17,-0.13,-0.62,-0.39,0.82,0.16,0.65,-11.66,-2.93,-11.23,R
1.228,255,97,38,202,134,2.44,6.74,6.18,0.15,-1.48,-2.65,-3.09,4.72,7.45,0.15,0.53,-0.67,-3.96,6.91,4.61,0.13,-0.20,-0.53,-3.32,7.34,5.15,0.11,-0.26,-0.50,-2.99,8.22,3.43,0.01,-0.33,-0.29,0.74,0.19,0.65,-18.74,-3.97,-12.63,R
1.28,255,94,38,184,132,3.10,4.92,7.38,-0.56,0.14,-0.98,-3.40,6.20,6.95,0.16,0.34,-0.71,-4.02,8.00,4.61,0.07,-0.19,-0.40,-3.70,7.83,5.27,-0.04,-0.23,-0.41,-3.35,8.62,3.98,-0.03,-0.14,-0.24,0.75,0.18,0.61,-7.20,-10.31,-8.54,R
1.328,255,92,37,185,132,3.22,4.29,7.37,-0.40,0.07,-0.75,-3.36,5.65,6.80,0.05,0.42,-0.25,-4.13,7.57,4.56,0.01,0.04,-0.18,-3.42,7.37,4.87,-0.08,0.13,-0.11,-3.23,8.06,3.90,-0.09,0.42,0.02,0.76,0.19,0.70,-1.83,-5.19,-0.85,R
1.381,255,86,36,181,131,3.77,5.34,1.13,-2.29,3.36,-1.15,-4.58,3.38,8.09,0.11,1.75,-0.56,-4.59,6.68,5.64,0.03,0.13,-0.34,-3.82,7.31,6.20,-0.09,0.17,-0.32,-3.50,8.19,5.84,-0.29,0.47,-0.26,0.76,0.19,0.69,-1.16,-22.09,-7.93,R
1.435,255,78,35,181,129,-3.00,0.24,20.98,-1.14,1.01,0.01,-4.02,8.07,6.00,-0.06,0.29,-0.62,-4.33,8.22,4.40,-0.23,0.13,-0.13,-3.06,7.52,4.32,-0.16,0.07,0.07,-1.95,8.71,1.87,-0.06,0.25,0.41,0.50,0.20,0.73,17.76,-30.64,4.46,R
1.483,255,77,34,180,128,1.60,5.63,4.15,-2.37,0.64,1.18,-4.17,4.11,6.84,0.09,0.24,0.71,-4.73,6.59,5.91,0.20,0.54,0.45,-4.59,6.67,6.95,0.18,0.40,0.30,-4.40,8.64,5.82,0.13,0.48,0.16,0.79,0.18,0.74,11.11,4.94,5.86,R
1.535,255,74,34,181,126,-4.88,-2.77,10.53,-4.43,4.32,1.71,-4.07,4.77,6.83,-0.85,0.49,-0.38,-4.79,6.37,5.40,-0.48,-0.16,-0.28,-4.07,6.34,6.13,-0.75,-0.35,-0.24,-3.54,7.45,4.62,-1.00,-0.39,-0.20,0.70,0.13,0.69,25.82,-82.15,0.85,R
1.589,255,70,35,182,125,-4.19,-2.25,13.84,-1.94,0.95,0.63,-6.03,4.44,7.81,-0.46,0.35,0.05,-4.43,7.80,4.87,0.07,0.23,0.14,-2.75,7.12,4.10,0.14,0.16,0.25,-2.12,7.61,2.57,0.21,0.45,0.18,0.54,0.19,0.79,19.59,-22.16,5.00,R
1.638,255,70,36,185,125,-3.31,-3.12,9.36,-2.37,0.35,2.16,-4.61,4.43,6.95,-0.50,-0.05,0.62,-5.02,7.03,5.52,-0.21,0.16,0.37,-4.53,6.00,7.34,-0.45,-0.09,0.28,-4.53,7.15,6.87,-0.71,-0.28,0.40,0.68,0.12,0.75,21.06,-23.99,15.20,R
1.692,255,70,36,187,127,-3.19,-4.57,10.40,-1.04,0.00,0.88,-5.26,3.31,7.57,-0.24,0.00,-0.09,-4.61,6.52,5.14,-0.14,0.02,0.03,-3.42,6.63,5.89,-0.06,-0.04,0.09,-2.89,7.42,4.30,-0.03,0.12,0.11,0.56,0.14,0.79,8.85,-10.74,4.52,R
1.74,255,70,36,190,119,-3.17,-3.78,8.79,-0.35,-0.44,0.62,-5.18,4.49,7.66,0.01,0.11,0.17,-4.62,7.27,5.14,-0.02,0.18,0.21,-3.65,7.16,6.40,0.04,0.07,0.22,-3.19,8.70,4.95,0.04,0.12,0.08,0.62,0.15,0.81,6.47,1.77,8.91,R
1.797,255,71,36,190,127,-2.65,-3.53,8.71,-1.01,0.32,0.67,-4.75,3.31,7.35,-0.42,0.19,0.22,-4.60,6.06,5.26,-0.27,0.06,0.06,-3.62,5.36,6.48,-0.35,-0.22,0.06,-2.92,7.03,4.53,-0.37,-0.16,0.07,0.59,0.13,0.77,11.29,-24.72,4.94,R
1.847,255,70,37,192,130,-3.53,-4.40,9.64,-0.46,-0.37,0.34,-5.16,3.98,7.70,-0.07,0.04,0.02,-4.43,6.95,5.43,-0.02,0.05,0.04,-3.34,6.43,6.21,0.02,-0.01,0.05,-3.15,7.33,5.09,0.06,0.11,0.04,0.56,0.14,0.80,1.34,3.66,3.17,R
1.897,255,72,37,193,130,-2.13,-4.68,5.84,-0.47,-0.19,0.28,-4.49,4.14,6.76,-0.05,0.17,0.02,-4.43,6.90,5.20,-0.04,0.01,0.02,-3.49,6.96,6.54,-0.09,-0.16,0.00,-3.35,7.92,5.91,-0.23,0.01,-0.16,0.62,0.15,0.81,4.27,-9.46,0.85,R
1.943,255,71,37,194,131,-3.69,-1.99,9.90,-0.24,0.36,-0.47,-5.54,4.23,8.07,-0.12,0.18,-0.09,-4.41,6.80,5.17,-0.13,-0.03,0.00,-3.18,6.35,5.74,-0.10,-0.08,-0.03,-3.28,7.56,5.21,-0.02,0.01,-0.10,0.54,0.14,0.79,7.45,-3.36,-0.37,R
1.996,255,72,37,198,130,-3.21,-4.08,9.75,0.46,-0.46,-0.31,-5.34,4.00,7.53,0.06,0.02,-0.02,-4.72,7.32,5.11,-0.04,0.01,0.02,-3.17,7.21,5.89,-0.01,-0.09,0.14,-3.22,8.28,5.29,0.05,0.10,0.05,0.61,0.13,0.81,-2.56,11.47,2.99,R
2.044,255,73,37,200,131,-2.46,-4.78,7.78,0.28,-0.22,-0.54,-4.76,4.66,6.97,-0.12,0.12,-0.02,-4.55,7.34,5.06,-0.12,0.05,-0.00,-3.12,7.12,6.03,-0.03,-0.12,0.02,-3.43,7.58,5.65,-0.08,0.06,-0.01,0.61,0.14,0.80,1.10,-0.85,1.46,R
2.095,255,74,38,202,129,-3.06,-3.21,10.00,0.09,-0.24,-0.26,-5.20,3.39,7.45,-0.34,0.05,0.09,-4.50,7.37,4.86,-0.26,-0.00,-0.05,-3.44,6.33,6.82,-0.19,-0.10,0.05,-3.48,7.69,5.59,-0.21,-0.17,0.05,0.59,0.13,0.78,0.98,-4.33,3.48,R
2.145,255,75,38,202,130,-2.29,-3.71,8.73,0.73,-0.77,-0.59,-4.74,3.80,6.66,-0.14,0.04,-0.07,-4.18,7.08,4.55,-0.22,-0.13,-0.05,-2.95,6.30,5.81,-0.10,-0.30,0.15,-2.98,7.06,4.86,-0.25,-0.27,0.04,0.61,0.16,0.80,-0.37,8.36,5.19,R
2.199,255,78,38,208,131,-2.15,-2.88,9.88,0.84,-0.48,-0.86,-5.07,4.00,7.39,-0.09,0.30,-0.20,-4.87,5.98,5.85,-0.34,-0.11,-0.12,-3.14,5.28,6.89,-0.37,-0.12,-0.07,-3.02,6.67,5.67,-0.25,-0.26,-0.18,0.59,0.13,0.76,6.77,0.37,0.24,R
2.252,255,77,38,212,132,-1.00,-8.01,11.21,2.06,-3.30,-0.23,-5.00,3.78,6.77,-0.06,-0.18,-0.15,-4.43,7.02,4.81,-0.21,-0.46,-0.14,-2.69,6.97,5.65,-0.22,-0.44,0.10,-2.81,8.10,5.23,-0.31,-0.41,0.05,0.60,0.15,0.81,0.37,10.93,0.18,R
2.305,255,78,40,218,137,-0.76,-0.20,9.15,2.21,-0.45,-2.52,-4.78,2.24,6.76,0.33,0.18,-0.35,-4.33,5.57,6.06,-0.26,-0.62,-0.19,-3.43,4.99,7.94,-0.42,-0.58,-0.20,-2.97,6.49,6.53,-0.29,-0.72,-0.24,0.65,0.12,0.79,-2.32,17.64,-9.28,R
2.354,255,80,44,227,146,1.33,-2.61,10.33,1.74,-1.69,-1.79,-5.51,3.60,7.55,0.32,-0.60,-0.72,-4.14,5.69,6.57,-0.34,-1.08,-0.46,-2.40,5.43,7.08,-0.39,-0.68,-0.47,-2.65,7.25,6.10,-0.20,-0.78,-0.39,0.58,0.12,0.80,2.81,4.21,-18.49,R
2.402,255,83,46,237,153,1.36,-0.40,8.14,1.60,0.21,-2.05,-4.33,1.78,5.92,0.37,0.15,-0.78,-4.19,3.69,7.64,-0.29,-1.34,-1.00,-3.42,3.22,8.37,-0.69,-0.53,-0.94,-3.39,5.34,6.63,-0.59,-0.49,-0.49,0.66,0.10,0.82,-13.43,2.01,-28.38,R
2.453,148,255,255,255,255,0.18,1.53,9.86,1.25,0.33,-1.01,-6.44,3.44,7.34,0.64,-0.36,-1.63,-4.06,5.82,6.03,-0.15,-1.21,-1.43,-3.18,6.40,7.07,-0.74,-0.42,-1.37,-2.33,6.51,5.62,-0.63,-0.04,-0.91,0.58,0.11,0.79,6.90,-20.81,-40.53,R
2.509,255,95,55,255,170,0.27,1.42,10.08,0.24,0.49,-0.76,-5.64,4.16,6.35,0.27,0.42,-0.96,-4.63,6.26,7.02,-0.21,-0.28,-0.99,-3.64,5.72,7.87,-0.47,0.31,-0.72,-2.68,7.36,5.60,-0.38,0.82,-0.45,0.62,0.08,0.82,6.35,-4.70,-29.91,R
2.562,255,101,58,255,174,0.01,2.01,10.59,-0.60,1.01,-0.38,-6.82,4.45,7.78,-0.07,0.60,-0.59,-4.37,5.88,5.52,-0.30,0.24,-0.59,-3.07,4.66,5.45,-0.19,1.45,-0.60,-4.06,6.30,7.86,0.06,1.10,-0.56,0.63,0.06,0.77,8.97,-9.40,-21.00,R
2.609,134,255,247,255,255,0.15,1.59,9.10,-0.68,1.93,-1.11,-6.94,3.90,6.70,-0.14,0.97,-0.33,-5.22,5.20,6.29,-0.35,3.78,-0.49,-5.67,4.07,7.37,1.10,4.31,-0.95,-4.69,5.04,6.21,1.61,2.83,-0.15,0.58,0.04,0.76,-3.54,7.75,-12.45,R
2.659,255,87,32,174,142,-4.10,5.06,6.34,-2.42,4.85,-1.48,-7.29,2.58,6.27,0.29,2.61,-0.16,-7.66,4.59,5.52,1.00,6.22,-0.66,-6.64,6.47,2.94,1.55,4.18,-0.38,-4.64,8.24,3.00,1.70,2.21,-1.11,0.61,0.09,0.83,1.89,-11.90,1.77,R
2.709,255,62,19,127,111,-6.30,-9.51,12.98,-2.07,4.90,0.02,-6.68,2.79,2.81,0.09,2.91,-0.29,-8.63,7.03,3.09,0.95,5.37,-0.07,-8.82,4.90,4.98,0.89,4.52,0.30,-8.31,5.86,7.13,1.08,3.44,0.36,0.50,0.03,0.79,12.27,-30.33,-8.12,R
2.769,169,43,14,101,93,-9.82,-3.31,10.95,-1.19,4.50,0.30,-8.56,3.17,3.91,0.03,2.16,0.64,-10.05,4.57,1.31,0.32,3.93,0.22,-8.91,5.91,3.15,0.72,2.59,0.28,-7.65,7.90,4.35,1.02,1.31,0.15,0.63,-0.00,0.87,-8.00,-6.29,2.32,R
2.816,102,30,11,88,87,-8.61,-4.59,4.99,0.21,2.55,-0.21,-10.07,1.76,1.69,-0.18,2.31,0.44,-9.32,5.01,-0.59,0.63,3.41,0.18,-8.38,5.58,0.77,0.71,2.45,0.32,-6.73,7.30,1.76,1.05,1.22,-0.32,0.58,0.02,0.86,-16.05,-1.65,2.81,R
2.867,68,26,8,75,83,-9.43,-1.92,5.38,0.58,1.47,-0.08,-8.04,2.50,2.10,0.46,1.38,0.33,-6.15,4.15,-3.86,0.26,1.91,0.17,-7.31,4.98,-0.72,0.37,1.98,0.24,-6.86,6.28,1.53,0.50,0.64,0.12,0.58,0.07,0.83,-15.14,13.61,2.56,R
2.913,53,22,7,71,80,-8.05,-2.38,4.59,1.23,1.28,0.28,-11.31,3.33,1.86,0.91,2.01,0.57,-9.28,5.51,-2.90,0.45,1.58,0.64,-8.62,6.22,-0.21,0.54,1.72,0.59,-6.69,7.53,0.94,0.79,1.50,0.38,0.56,0.05,0.80,-13.31,27.47,-5.55,R
2.965,44,21,7,65,80,-8.86,-0.64,2.83,1.17,0.97,0.64,-9.66,4.31,-0.55,0.67,2.21,0.86,-4.50,4.42,-5.79,0.09,1.14,0.53,-5.41,5.16,-3.72,0.37,1.92,0.53,-5.13,6.68,-1.88,0.74,1.48,0.39,0.63,0.10,0.80,-17.09,41.93,-1.46,R
3.017,39,18,7,62,75,-9.66,-0.10,3.87,1.08,0.84,1.21,-8.92,5.41,-0.42,0.52,1.43,1.18,-6.39,6.05,-5.08,0.02,1.68,0.85,-6.22,6.79,-2.60,0.47,2.00,0.98,-4.82,7.43,-2.08,1.32,2.13,0.50,0.58,0.10,0.69,5.25,70.07,-6.16,R
3.069,38,16,7,61,73,-8.01,-0.66,2.23,1.14,0.64,2.02,-6.59,5.06,-2.95,0.14,2.37,1.64,-4.37,5.73,-5.68,-0.29,1.94,1.21,-5.77,6.09,-3.44,0.26,2.00,1.31,-6.42,6.54,-1.90,1.07,1.92,0.79,0.76,0.10,0.64,9.34,110.47,-6.47,R
3.117,34,14,7,59,72,-8.35,2.09,2.64,0.94,0.77,1.75,-7.90,5.77,-1.57,0.21,2.05,1.35,-5.34,7.02,-5.99,-0.16,2.19,0.99,-5.45,7.43,-4.24,0.29,2.34,1.14,-4.00,7.33,-3.95,1.01,2.17,0.88,0.73,0.07,0.54,16.36,90.76,-8.79,R
3.165,30,14,7,57,72,-9.44,3.51,1.47,0.76,0.07,2.53,-4.94,6.95,-3.74,-0.34,1.39,2.07,0.33,7.03,-8.32,-0.77,2.22,1.56,-1.81,7.45,-6.63,-0.00,2.74,1.79,-2.89,5.91,-6.24,1.26,2.92,1.48,0.80,0.09,0.48,33.33,152.59,-6.41,R
3.219,32,16,8,59,72,-8.14,4.05,2.09,0.60,0.97,2.74,-6.05,7.37,-3.26,-0.30,1.91,2.21,-3.22,8.49,-6.45,-0.68,2.44,1.51,-4.05,9.24,-5.34,0.04,2.35,1.70,-2.86,9.18,-5.54,1.27,2.32,1.13,0.92,0.01,0.34,49.13,144.41,-8.61,R
3.272,31,16,7,59,74,-7.26,4.58,-0.16,0.23,0.54,2.81,-3.91,8.58,-4.30,-0.64,1.62,2.17,-0.05,8.51,-7.47,-1.30,2.03,1.49,-0.53,7.48,-7.58,-0.56,2.18,1.81,-0.64,7.62,-8.96,0.56,2.26,1.57,0.97,0.03,0.25,35.34,150.70,7.14,R
3.319,32,17,9,64,77,-7.81,7.14,1.90,0.29,0.81,2.69,-3.42,7.85,-3.24,-0.67,1.69,2.31,0.42,7.86,-5.54,-0.97,2.64,1.48,-0.68,7.94,-5.55,-0.11,2.65,1.75,-1.13,7.50,-6.45,1.01,2.83,1.30,0.98,0.02,0.12,51.33,155.70,-6.77,R
3.372,35,17,9,65,77,-4.01,5.41,0.40,0.52,0.95,2.73,-2.39,8.96,-3.57,-0.64,1.72,2.30,-0.26,9.05,-5.28,-1.35,1.61,1.62,-0.70,8.85,-4.80,-0.59,1.38,1.93,-1.02,7.93,-4.84,0.59,1.78,1.46,1.00,-0.01,-0.03,44.92,150.21,-3.42,R
3.425,36,19,9,72,80,-5.39,8.16,0.83,0.34,0.47,2.45,-2.95,9.17,-2.65,-0.87,0.86,2.13,0.97,7.81,-4.58,-1.38,0.73,1.45,0.87,7.79,-6.16,-0.64,0.31,1.61,1.24,7.92,-8.22,0.24,0.75,1.41,1.06,-0.03,-0.09,20.26,122.13,5.55,R
3.476,36,20,10,75,85,-3.19,7.58,-0.44,0.39,-0.10,1.86,1.87,7.47,-3.89,-0.70,0.24,1.58,3.06,7.43,-3.74,-0.83,0.83,1.04,1.97,7.72,-4.34,-0.21,0.73,1.17,1.67,6.56,-6.23,0.36,1.03,1.06,1.01,0.00,-0.20,18.92,91.49,-2.81,R
3.523,36,20,11,77,85,-4.48,8.90,0.78,0.51,0.12,1.57,-1.78,9.58,-2.64,-0.25,0.13,1.60,1.21,8.97,-3.37,-1.12,-0.63,1.35,1.74,8.54,-4.77,-0.47,-1.11,1.42,1.68,8.11,-5.66,0.33,0.11,1.12,0.98,-0.04,-0.26,10.56,89.36,-2.20,R
3.576,39,21,12,84,89,-1.34,8.20,-0.96,0.32,-0.08,1.11,2.11,8.20,-2.63,-0.35,0.06,1.02,4.03,6.47,-2.82,-0.66,0.25,0.71,2.83,5.85,-4.42,-0.27,0.03,0.71,1.62,5.68,-5.74,0.09,-0.13,0.46,1.01,-0.00,-0.31,4.64,54.50,4.76,R
3.627,41,21,11,89,91,-3.20,9.44,0.10,0.23,-0.05,0.54,1.57,9.05,-2.83,-0.07,-0.03,0.44,4.07,9.14,-3.08,-0.35,-0.46,0.41,3.83,9.03,-4.39,-0.08,-0.55,0.45,3.89,7.13,-7.16,-0.09,-0.34,0.52,0.86,-0.00,-0.40,1.65,29.42,-2.44,R
3.684,46,22,12,95,93,-2.15,9.96,-0.83,0.17,0.08,0.54,2.94,8.57,-2.82,-0.20,0.21,0.41,5.88,7.06,-3.87,-0.47,0.10,0.44,4.22,6.69,-4.84,-0.16,0.21,0.49,3.39,3.40,-7.36,0.09,0.22,0.42,0.95,0.02,-0.41,-1.28,31.56,4.82,R
3.731,49,21,12,96,93,-2.64,9.13,0.23,-0.07,0.36,0.30,2.56,9.17,-2.58,0.00,0.24,0.40,4.92,8.65,-2.69,-0.15,0.25,0.39,4.75,8.35,-4.53,0.01,0.23,0.48,4.57,6.42,-6.90,0.30,0.23,0.45,0.83,0.01,-0.46,11.84,29.48,-2.93,R
3.78,49,21,13,99,96,-2.14,9.85,-0.31,0.30,0.10,1.04,2.48,9.15,-2.56,-0.30,0.50,0.89,5.09,7.91,-3.24,-0.61,0.43,0.81,4.20,6.71,-5.03,-0.10,0.50,0.97,2.83,5.40,-6.36,0.10,0.59,0.83,0.89,0.01,-0.48,14.89,63.05,-0.61,R
3.833,52,22,13,98,94,0.23,10.12,-1.50,-0.02,0.34,0.45,3.12,8.36,-1.83,-0.14,0.18,0.36,5.39,7.20,-1.89,-0.14,0.15,0.29,4.65,6.73,-4.15,-0.00,0.12,0.19,4.50,4.43,-7.36,0.10,0.06,0.20,0.86,0.01,-0.51,9.34,21.18,0.18,R
3.884,51,24,13,99,94,-1.18,9.16,-0.35,-0.04,0.11,0.19,2.95,8.67,-2.15,-0.07,0.04,0.24,5.17,7.36,-2.18,-0.31,-0.11,0.28,4.68,6.90,-4.15,-0.06,-0.07,0.34,4.75,5.20,-6.70,0.14,0.30,0.35,0.82,0.01,-0.54,3.11,19.04,0.73,R
3.932,53,24,14,100,95,-1.99,9.15,0.25,0.15,0.27,0.62,3.48,8.93,-2.05,-0.17,0.34,0.76,7.01,7.10,-3.09,-0.35,0.28,0.74,5.99,6.32,-4.88,0.06,0.38,0.83,4.37,4.84,-6.64,0.46,0.61,0.55,0.79,0.04,-0.55,19.23,53.16,-5.68,R
3.981,53,24,14,101,96,-0.68,9.21,-0.29,0.27,0.30,0.87,3.09,8.78,-1.87,-0.05,0.36,0.85,5.24,7.88,-1.82,-0.15,0.59,0.69,5.18,7.36,-3.96,0.17,0.49,0.76,5.01,5.75,-6.57,0.57,0.53,0.52,0.77,0.02,-0.59,16.17,49.32,-6.59,R
4.036,53,24,14,100,95,-1.19,10.78,-1.23,0.32,0.24,1.10,4.04,9.25,-1.91,-0.29,0.40,0.99,7.10,8.29,-1.83,-0.50,0.59,1.02,7.21,7.36,-4.62,-0.00,0.58,1.22,6.78,4.96,-8.07,0.53,0.96,0.96,0.69,0.05,-0.64,14.65,72.75,-3.72,R
4.089,53,22,14,102,96,1.19,9.88,-1.27,0.50,0.37,1.51,5.40,7.21,-1.41,-0.39,0.67,1.32,6.79,5.77,-0.70,-0.45,1.08,1.20,6.49,5.25,-3.49,0.22,0.98,1.25,6.43,2.81,-7.12,0.97,1.07,0.72,0.73,0.04,-0.71,29.11,89.29,-7.32,R
4.138,53,24,13,102,95,0.13,8.92,-0.52,0.26,0.54,1.88,5.54,7.96,-1.46,-0.47,0.70,1.78,8.15,7.71,-0.91,-0.66,1.33,1.70,8.22,6.47,-3.95,0.21,1.29,1.98,8.06,3.83,-8.39,1.01,1.88,1.32,0.56,0.09,-0.75,34.36,117.37,-12.08,R
4.187,52,24,13,103,96,2.91,8.00,-0.68,0.45,0.74,2.31,5.84,6.65,-0.55,-0.46,0.98,2.13,6.34,4.75,1.11,-0.67,1.19,1.83,6.72,3.65,-2.87,0.28,1.55,1.96,4.87,1.14,-2.81,1.29,2.08,1.34,0.59,0.05,-0.86,49.38,129.64,-13.43,R
4.239,50,23,14,105,95,2.53,7.32,-0.26,0.31,0.68,2.33,7.04,7.27,-0.51,-0.62,0.81,2.15,8.77,5.24,0.59,-0.90,0.56,2.00,9.90,4.29,-3.82,0.16,1.36,2.14,9.33,1.67,-7.19,1.12,1.46,1.51,0.42,0.12,-0.86,40.41,131.96,-12.39,R
4.287,50,26,14,103,94,5.55,7.33,-1.44,0.52,0.61,2.32,8.07,4.89,0.14,-0.63,0.87,2.20,6.69,3.00,1.84,-0.66,1.77,1.74,6.06,2.57,-0.55,0.30,1.65,1.83,5.41,-0.64,-2.03,0.87,2.13,1.29,0.48,0.09,-0.98,51.51,124.51,-14.04,R
4.342,51,25,14,101,94,6.62,9.05,-2.75,0.17,0.27,1.37,8.15,5.67,0.32,-0.46,0.25,1.04,9.26,4.18,1.98,-0.44,0.41,0.88,10.58,2.83,-2.20,-0.06,0.67,0.82,10.35,1.66,-4.52,0.82,0.44,0.07,0.28,0.18,-0.93,22.77,52.86,0.85,R
4.39,44,26,15,100,93,5.98,6.59,-1.21,0.00,0.34,1.62,8.07,4.37,0.78,-0.81,0.67,1.54,7.63,2.18,2.56,-0.84,1.28,1.16,8.16,1.22,-0.60,-0.04,1.53,1.46,7.73,1.20,-4.08,0.51,2.60,0.61,0.26,0.18,-1.00,43.58,89.60,-2.50,R
4.445,46,26,14,94,94,7.56,6.45,-1.56,0.08,0.12,1.34,8.74,4.15,1.21,-0.53,0.51,0.93,8.44,2.56,3.26,-0.42,0.67,0.57,9.57,1.76,-0.18,-0.15,0.73,0.55,10.07,0.93,-3.56,-0.06,1.00,0.26,0.20,0.23,-0.91,27.71,40.41,3.11,R
4.493,40,26,14,98,93,6.67,5.07,-0.29,-0.21,0.19,1.05,8.61,2.96,1.41,-0.84,0.43,0.91,7.97,1.05,3.01,-0.63,0.76,0.54,8.21,-0.31,0.71,-0.16,1.03,0.77,8.34,-1.54,-1.87,0.12,1.88,0.27,0.15,0.21,-1.00,33.57,46.26,3.48,R
4.546,38,26,14,95,92,8.87,5.85,-1.85,-0.18,0.27,0.62,8.68,2.85,2.09,-0.43,0.33,0.38,9.13,1.42,3.67,-0.25,0.22,0.07,9.80,0.35,0.45,-0.18,0.29,0.02,9.98,-0.28,-2.04,-0.02,0.28,-0.20,0.18,0.26,-0.94,17.88,11.17,3.78,R
4.596,37,26,15,96,89,7.08,5.61,-0.14,-0.32,0.35,0.28,8.52,2.60,2.13,-0.70,0.21,0.31,9.18,1.55,3.47,-0.24,0.20,0.09,9.94,0.57,0.55,-0.09,0.37,0.20,10.57,-1.48,-3.01,0.14,0.75,-0.07,0.12,0.26,-0.98,20.57,14.22,1.28,R
4.645,36,26,14,94,88,7.95,6.64,-1.28,-0.16,0.43,0.26,8.76,3.26,2.39,-0.22,0.20,0.19,9.08,1.48,3.51,-0.21,0.19,0.08,9.56,0.35,0.53,-0.12,0.19,0.08,9.62,-0.39,-1.31,0.09,0.20,-0.20,0.12,0.29,-0.93,15.62,3.97,4.27,R
4.697,33,28,15,94,89,7.35,6.55,-0.26,-0.29,0.51,0.09,9.22,2.44,2.24,-0.25,0.22,0.12,9.29,1.13,3.77,-0.12,0.21,0.04,10.28,-0.04,0.42,0.08,0.19,-0.05,10.10,-0.24,-2.06,0.16,0.37,-0.34,0.08,0.30,-0.94,18.25,4.27,0.85,R
4.751,31,27,14,94,89,8.06,5.29,0.06,-0.13,0.91,-0.04,8.46,2.08,2.62,0.11,0.72,0.07,6.77,0.47,4.41,0.28,0.52,-0.16,9.39,-0.36,0.43,0.51,-0.12,0.22,8.03,0.54,1.15,0.21,0.45,-0.26,0.10,0.29,-0.95,16.48,0.37,-3.05,R
4.798,26,26,14,92,89,6.96,5.08,1.56,-0.18,1.00,-0.32,8.29,2.26,3.30,-0.07,0.69,-0.03,8.38,1.02,4.52,0.01,0.57,0.03,10.53,0.09,0.22,0.18,0.17,-0.07,10.02,0.32,-1.24,0.16,0.26,-0.19,0.08,0.32,-0.94,13.18,-1.40,-2.56,R
4.848,22,24,13,91,87,8.72,5.54,-0.24,0.17,1.26,-0.22,9.05,1.82,3.30,0.44,1.77,-0.03,7.38,0.95,5.74,0.20,1.01,-0.00,9.51,-0.22,1.39,0.30,0.22,-0.09,9.50,0.03,-0.36,0.18,0.20,-0.22,0.12,0.32,-0.93,13.37,-1.22,-8.42,R
4.901,20,21,12,93,90,7.06,7.31,0.31,0.21,1.33,-0.54,8.57,3.65,4.33,-0.47,2.07,-0.20,9.36,2.06,4.91,-0.02,0.52,-0.07,11.70,1.22,0.14,0.05,0.43,0.02,10.81,0.27,-1.89,0.17,0.19,-0.21,0.09,0.36,-0.94,16.42,-3.48,-6.71,R
4.953,20,17,13,92,90,6.91,6.03,2.58,0.26,0.63,-0.01,7.51,2.00,5.97,-0.22,1.34,0.08,6.40,0.97,6.79,0.17,0.99,-0.06,8.71,-0.55,1.85,0.37,0.70,-0.18,10.18,-0.05,-2.46,0.23,1.17,-0.27,0.13,0.35,-0.92,19.10,4.64,-15.08,R
5.005,24,17,12,90,86,6.45,8.35,1.59,0.00,0.13,0.06,7.36,7.06,5.10,-0.19,0.32,-0.13,6.65,3.64,5.61,0.00,0.67,-0.00,9.53,1.08,1.44,0.21,0.63,0.01,7.96,0.75,3.22,0.13,2.43,0.04,0.05,0.36,-0.91,10.07,-2.69,-8.85,R
5.056,32,19,11,85,76,8.79,5.45,0.74,-0.01,0.17,0.16,10.08,3.71,5.32,-0.58,0.93,-0.04,9.26,0.57,6.51,0.35,2.45,-0.16,10.67,-1.86,2.17,0.48,1.84,-0.29,8.87,-2.16,2.59,0.74,0.26,-0.57,0.17,0.40,-0.89,18.55,-3.11,-6.77,R
5.104,34,18,7,84,80,7.62,6.11,2.02,-0.00,0.15,0.03,7.69,0.75,6.24,-0.42,0.66,-0.32,5.78,2.83,7.12,0.79,1.61,-0.40,8.37,2.55,3.77,0.69,0.77,-0.51,8.86,1.90,2.99,0.34,-2.02,-0.73,0.11,0.41,-0.95,32.78,-18.55,-14.22,R
5.165,35,20,6,82,85,7.10,6.64,1.41,-0.01,0.82,-0.33,4.39,3.29,6.69,-0.14,3.49,-0.42,2.84,3.61,8.74,0.91,2.86,-0.43,6.52,3.94,6.12,0.79,1.86,-0.42,9.06,2.83,0.59,-0.12,-2.78,-0.97,0.14,0.40,-0.92,32.96,-18.01,-10.25,R
5.208,39,17,5,71,93,6.41,6.42,2.61,0.11,0.69,-0.66,3.35,2.93,7.73,-0.22,1.52,-0.85,5.43,2.83,7.66,0.42,1.02,-0.37,11.10,1.56,1.25,0.22,0.91,-0.29,9.88,1.17,-1.92,-0.10,-1.94,-0.41,0.13,0.45,-0.88,4.52,-28.14,-0.43,R
5.26,40,9,4,62,98,6.38,7.81,2.33,0.07,0.75,-0.56,2.56,2.09,9.31,-0.14,2.06,-0.77,0.90,3.53,9.17,0.68,1.68,-0.43,6.62,2.57,5.83,0.32,1.17,-0.49,8.22,3.11,-1.07,-0.10,-1.87,-0.64,0.21,0.42,-0.90,16.11,-24.90,-6.29,R
5.312,35,12,3,49,103,5.65,5.79,3.65,0.07,0.63,-0.56,3.31,2.50,7.39,0.38,1.70,-0.53,3.75,4.41,8.86,0.53,1.28,-0.17,9.02,2.07,5.46,0.03,1.12,-0.21,9.66,2.43,-3.64,-0.04,-0.51,-0.08,0.18,0.46,-0.81,-1.22,-18.62,-5.13,R
5.36,31,9,2,45,106,6.33,7.57,2.96,0.04,0.51,-0.36,2.55,2.26,9.52,0.07,1.45,-0.24,2.56,3.85,8.87,0.35,0.61,-0.18,7.74,2.41,5.36,0.08,0.63,-0.35,8.84,2.85,-2.24,-0.09,-0.09,-0.18,0.22,0.43,-0.86,5.68,-18.01,-3.36,R
5.412,36,8,2,44,106,5.27,7.48,2.71,0.01,0.03,-0.23,3.00,3.19,8.60,0.14,0.83,-0.18,2.08,3.97,9.09,0.13,0.44,-0.11,6.85,2.02,6.47,-0.03,0.40,-0.15,8.95,2.47,-2.64,-0.03,-0.11,-0.03,0.25,0.45,-0.83,2.56,-3.91,-1.46,R
5.463,37,8,2,43,103,5.87,7.92,2.76,-0.21,-0.13,-0.19,1.16,3.05,9.47,0.19,0.19,0.08,1.77,4.07,9.03,0.15,0.01,-0.05,6.72,2.62,6.63,0.12,-0.04,-0.17,9.46,2.99,-3.07,-0.01,-0.32,-0.08,0.22,0.44,-0.89,1.22,-9.40,-2.14,R
5.512,42,8,2,47,106,6.21,7.80,2.22,-0.40,-1.32,0.27,0.79,3.62,10.94,-0.17,-2.06,0.38,0.33,4.31,10.96,-0.26,-1.72,0.09,5.57,2.22,8.71,-0.23,-2.11,-0.17,7.97,2.02,-1.04,-0.25,-1.83,-0.30,0.28,0.42,-0.85,-5.25,-5.55,1.83,R
5.567,47,13,6,61,108,6.01,8.13,3.57,-1.02,-2.28,0.32,4.89,2.91,7.38,-0.74,-4.01,0.24,3.95,3.57,7.21,-1.16,-4.85,0.04,8.13,3.46,3.31,-1.05,-4.87,-0.58,7.78,4.30,-4.67,-0.80,-1.58,0.01,0.31,0.45,-0.89,-8.00,-15.69,9.46,R
5.616,69,17,9,82,114,9.14,7.61,-0.91,-2.03,-3.83,-0.28,6.05,3.75,7.41,0.17,-4.49,-0.81,4.92,4.44,6.68,-0.84,-4.28,-0.83,6.01,5.43,2.53,-1.52,-4.55,-1.85,7.68,3.44,-4.74,-1.79,-1.68,0.17,0.32,0.43,-0.91,-19.41,-75.07,15.87,R
5.665,100,24,11,103,117,8.16,6.05,1.43,-2.29,-3.26,-0.92,6.34,1.21,4.99,0.30,-5.08,-1.81,5.56,1.30,4.66,-0.19,-8.15,-1.58,8.08,2.67,-2.06,-1.91,-5.22,-2.37,5.63,3.07,-3.35,-2.52,-1.99,-0.23,0.51,0.39,-0.86,-36.74,-110.05,4.64,R
5.721,123,32,16,119,117,7.83,9.01,-0.80,-2.86,-2.35,-1.40,8.59,8.32,1.14,0.14,-4.26,-3.33,8.43,6.93,0.49,-0.23,-4.60,-2.76,7.77,5.15,-1.93,-1.97,-3.23,-2.53,6.41,3.85,-5.94,-2.65,-2.77,-0.85,0.34,0.41,-0.88,-53.89,-173.16,10.62,R
5.771,153,43,19,127,120,6.24,4.55,1.04,-3.59,-2.02,-0.72,7.81,6.46,1.26,-0.47,-3.54,-2.77,7.55,6.62,-0.18,-0.62,-3.44,-2.22,6.73,5.55,-2.34,-1.87,-3.00,-1.95,4.43,3.66,-3.93,-2.14,-1.78,-0.76,0.48,0.38,-0.72,-35.83,-148.13,11.90,R
5.821,176,53,21,131,119,7.40,5.68,0.32,-3.02,-1.22,-0.76,8.09,4.41,-0.57,-1.56,-3.05,-2.91,6.49,6.45,-1.81,-1.06,-3.74,-2.96,6.42,9.30,-3.25,-2.36,-2.96,-2.70,5.43,7.20,-6.52,-2.73,-2.39,-1.09,0.60,0.34,-0.67,-38.88,-181.34,11.72,R
5.87,188,62,23,138,123,5.79,7.87,2.21,-2.73,-0.03,-0.61,6.56,10.29,0.78,-1.90,-1.45,-1.85,0.52,9.44,-1.33,-1.17,-3.62,-2.02,4.29,8.64,-3.13,-1.77,-3.08,-1.70,3.14,7.06,-3.46,-2.27,-2.13,-0.82,0.71,0.34,-0.60,-14.16,-148.99,9.64,R
5.924,207,67,28,148,136,6.71,5.39,2.45,-2.51,-0.58,-0.14,5.21,6.72,0.92,-1.78,-1.30,-2.04,3.61,8.86,-1.93,-1.41,-3.47,-2.09,4.52,9.32,-4.20,-2.08,-2.54,-1.80,3.13,7.91,-5.28,-2.36,-2.04,-0.97,0.83,0.36,-0.45,-21.18,-146.18,13.18,R
5.971,216,72,31,160,135,5.21,5.62,4.54,-2.44,0.82,-0.49,4.32,7.36,2.12,-1.65,-0.41,-2.06,4.60,8.83,-1.79,-1.51,-1.90,-1.89,3.60,9.25,-3.70,-1.98,-1.50,-1.46,2.69,8.64,-5.15,-2.13,-1.47,-0.98,0.83,0.33,-0.39,-7.81,-143.31,5.55,R
6.024,216,77,33,140,140,5.78,3.96,5.37,-1.92,0.65,-0.66,3.95,10.49,1.81,-1.69,-0.56,-1.77,2.02,9.03,-0.53,-1.65,-1.47,-1.68,1.02,9.22,0.23,-2.03,-1.53,-1.37,0.34,9.33,-0.84,-2.28,-1.42,-1.00,0.95,0.32,-0.24,-9.03,-131.90,6.65,R
6.073,219,79,34,172,143,5.20,3.71,4.22,-2.97,1.29,-0.82,4.15,7.94,1.48,-2.79,0.11,-2.24,3.65,9.15,-1.95,-2.44,-1.18,-2.30,2.68,9.27,-2.80,-2.91,-1.02,-1.78,1.86,8.85,-5.22,-2.76,-1.51,-1.29,0.84,0.36,-0.17,-19.65,-193.36,9.28,R
6.126,219,79,35,174,143,3.09,3.11,9.66,-1.96,1.20,-0.72,1.37,6.84,5.05,-1.51,0.59,-1.81,-0.98,8.85,0.61,-1.46,-0.64,-1.73,0.35,9.05,1.23,-1.55,-0.52,-1.31,-0.18,9.60,0.42,-1.66,-0.66,-0.92,0.88,0.34,0.01,5.92,-118.90,-7.39,R
6.173,219,81,36,174,145,3.77,3.66,6.75,-1.85,1.16,-0.66,1.24,8.68,4.88,-1.75,0.41,-1.66,0.22,9.93,1.83,-1.77,-0.65,-1.71,-0.11,9.44,2.10,-2.02,-1.01,-1.35,-0.11,9.47,-0.53,-2.18,-1.52,-0.98,0.92,0.35,0.11,-2.14,-135.62,2.01,R
6.232,217,81,36,179,148,2.66,1.79,9.47,-1.75,1.15,-0.68,-0.15,6.26,6.25,-1.48,0.45,-1.70,-0.39,8.89,2.08,-1.44,-0.60,-1.60,-0.25,8.92,1.91,-1.60,-0.54,-1.29,-0.46,9.34,0.37,-1.65,-0.93,-0.87,0.84,0.34,0.21,1.89,-115.84,-6.71,R
6.28,216,83,37,181,151,1.88,2.76,9.05,-1.24,1.07,-0.87,-1.11,6.77,6.97,-1.16,0.57,-1.68,-1.55,8.88,3.39,-1.32,-0.44,-1.57,-1.73,8.92,4.43,-1.52,-0.74,-1.21,-2.40,9.10,4.40,-1.76,-1.44,-0.85,0.88,0.32,0.33,0.61,-110.78,-10.13,R
6.332,215,82,37,182,154,2.72,1.20,7.02,-2.01,1.23,-1.04,-0.82,5.11,6.14,-1.95,0.35,-2.05,-2.48,8.12,4.95,-1.95,-1.05,-2.19,-1.65,8.50,4.71,-2.44,-1.45,-1.68,-1.72,9.06,3.29,-2.56,-1.75,-1.17,0.85,0.32,0.41,-13.98,-166.50,-11.84,R
6.377,219,83,37,189,158,-0.45,-0.17,12.02,-1.68,1.46,-1.19,-2.83,5.29,7.87,-1.38,0.66,-2.03,-1.99,8.24,3.95,-1.36,-1.02,-1.75,-0.94,7.95,3.94,-1.55,-1.08,-1.26,-1.12,8.65,3.34,-1.49,-1.30,-1.03,0.66,0.34,0.54,6.84,-112.49,-20.69,R
6.429,216,83,39,195,163,0.92,0.00,8.58,-1.46,1.12,-0.91,-3.68,3.95,9.02,-1.27,0.11,-1.60,-4.54,7.05,7.20,-1.44,-0.92,-1.68,-2.84,7.67,8.01,-1.81,-1.16,-1.28,-2.29,9.60,7.35,-1.97,-1.53,-0.91,0.82,0.27,0.61,-7.93,-124.15,-19.10,R
6.481,215,84,41,200,169,-0.51,-1.71,9.60,-1.86,1.58,-1.12,-3.31,3.78,7.70,-1.40,0.15,-2.02,-3.08,6.36,5.08,-1.50,-1.00,-1.73,-1.43,5.77,5.23,-1.81,-0.99,-1.34,-1.97,6.36,5.76,-1.90,-1.23,-0.89,0.58,0.32,0.68,0.49,-127.26,-25.21,R
6.531,218,85,42,207,174,-0.76,-2.16,9.04,-1.46,1.10,-1.07,-3.53,2.06,8.22,-1.13,-0.39,-2.18,-4.52,5.80,8.75,-1.52,-1.50,-1.91,-3.35,7.37,9.15,-1.80,-1.66,-1.58,-1.46,8.67,7.07,-2.00,-2.08,-1.10,0.62,0.25,0.75,-5.55,-124.02,-30.46,R
6.583,217,91,44,215,181,-2.43,-3.61,11.60,-1.35,1.37,-0.95,-4.31,2.91,9.17,-1.09,0.28,-1.53,-3.37,5.20,6.55,-1.23,-0.85,-1.23,-1.45,3.62,6.64,-1.27,-0.57,-1.04,-0.76,5.09,5.10,-1.17,-0.87,-0.68,0.43,0.29,0.84,5.43,-85.94,-28.38,R
6.637,222,94,47,222,185,-2.61,-2.31,10.55,-0.04,0.45,-0.82,-4.63,0.52,9.54,-0.08,0.03,-1.21,-4.56,5.15,8.51,-0.49,-0.84,-1.13,-2.40,5.35,9.24,-0.57,-0.87,-1.01,-1.16,7.03,9.01,-0.71,-0.90,-0.78,0.53,0.24,0.86,-3.05,-41.38,-29.91,R
6.685,224,103,49,228,187,-2.38,-1.35,8.88,-0.61,0.93,-0.76,-4.67,3.96,8.49,-0.63,0.25,-1.30,-3.81,4.84,7.35,-0.86,-0.78,-0.91,-1.84,3.87,7.75,-0.98,-0.45,-0.76,-1.40,5.18,8.04,-0.99,-1.11,-0.35,0.42,0.26,0.89,-2.99,-62.74,-17.27,R
6.737,218,107,50,231,191,-2.41,-3.27,7.35,-0.65,2.01,-1.54,-5.43,-0.62,9.65,-0.36,0.68,-1.11,-4.02,3.91,9.17,-0.26,-0.62,-1.13,-2.05,4.83,9.28,-0.57,-0.64,-0.94,-0.59,6.07,8.69,-0.71,-0.69,-0.72,0.43,0.24,0.89,-1.77,-53.89,-28.50,R
6.792,204,105,50,232,192,-5.47,-3.67,8.01,-1.45,3.10,-1.29,-5.49,1.32,8.88,-0.21,1.15,-0.85,-3.30,4.38,8.04,-0.17,-0.38,-0.57,-1.25,4.07,7.47,-0.45,-0.42,-0.52,0.21,6.00,5.84,-0.37,-0.34,-0.32,0.32,0.25,0.91,10.80,-56.09,-19.65,R
6.843,192,90,50,235,195,-5.96,-7.58,9.27,-0.60,2.67,-0.50,-5.97,1.90,8.42,0.24,1.49,0.45,-3.67,3.35,9.09,0.04,0.11,0.12,-2.42,3.20,10.17,-0.03,-0.03,-0.13,-0.67,5.65,9.26,-0.01,-0.19,-0.12,0.36,0.20,0.93,6.10,-7.57,-14.95,R
6.893,175,74,50,234,193,-4.80,-6.12,5.70,-1.02,2.48,-0.44,-6.47,0.50,7.72,-0.04,1.67,0.00,-4.43,4.60,8.90,-0.02,-0.19,-0.10,-2.17,4.05,9.17,-0.16,-0.26,-0.20,-0.40,4.82,8.00,-0.25,-0.19,-0.11,0.33,0.21,0.94,4.21,-33.02,-12.21,R
6.943,167,64,50,235,194,-7.38,-6.26,6.97,-0.44,1.60,-0.62,-5.28,-0.70,5.15,0.16,1.53,-0.03,-3.34,3.67,7.54,0.36,0.15,-0.18,-1.70,3.74,9.15,0.18,0.02,-0.28,-0.18,5.40,8.49,0.07,-0.10,-0.25,0.34,0.19,0.97,-1.34,-11.84,-12.27,R
6.994,157,54,49,235,194,-7.49,-4.77,6.58,-0.30,1.59,-0.68,-9.05,0.71,8.46,0.20,1.50,-0.10,-3.82,3.76,8.77,0.16,0.20,-0.09,-1.70,3.35,8.94,0.12,-0.04,-0.15,-0.29,4.41,7.93,0.05,0.01,-0.13,0.28,0.19,0.92,0.85,-6.84,-6.35,R
7.042,142,52,47,233,192,-7.60,-5.05,6.07,-0.09,1.29,-0.30,-7.61,4.30,5.75,0.05,0.59,0.14,-3.51,4.84,7.64,0.42,0.24,-0.04,-1.54,4.06,8.42,0.34,0.05,0.07,-0.24,5.51,7.82,0.34,0.06,0.06,0.31,0.19,0.94,-2.75,5.80,-1.71,R
7.096,139,48,45,233,191,-6.18,-5.42,4.37,-0.81,0.17,0.06,-6.80,0.47,6.01,0.17,0.12,0.45,-3.68,3.53,8.42,0.41,0.10,0.22,-2.05,2.72,9.23,0.34,0.06,-0.04,-0.60,4.39,8.62,0.22,0.11,-0.23,0.36,0.19,0.93,6.10,13.24,0.37,R
7.148,149,49,45,231,191,-6.90,-6.94,5.14,-1.25,-0.89,0.67,-7.45,0.46,6.04,0.17,-1.12,0.34,-3.95,4.07,8.17,0.50,-0.09,0.10,-1.77,4.89,8.79,0.39,-0.07,-0.07,-0.34,6.33,8.01,0.36,0.15,-0.37,0.33,0.18,0.93,12.57,5.80,-0.73,R
7.197,171,54,46,232,190,-8.25,-4.37,7.62,-1.26,-4.25,1.75,-7.66,1.02,8.50,-0.36,-2.71,0.55,-3.32,4.04,7.66,0.15,-0.41,0.30,-1.60,3.36,8.63,0.09,-0.16,0.04,-0.82,5.22,8.33,0.15,-0.09,-0.21,0.35,0.18,0.93,8.00,19.71,3.48,R
7.249,213,57,47,236,191,-5.97,-5.20,5.32,-0.73,-2.18,1.01,-6.26,1.64,7.34,0.31,-1.40,0.23,-4.01,4.89,7.92,0.21,-0.40,0.02,-2.07,4.81,9.52,0.10,-0.23,-0.10,-1.47,5.56,10.28,0.16,-0.47,-0.36,0.38,0.16,0.93,7.87,3.85,1.22,R
7.296,244,63,48,237,195,-6.36,-4.04,6.13,-1.75,-5.95,2.57,-5.57,2.60,8.14,0.11,-3.03,0.09,-3.51,5.07,8.62,0.05,-1.15,0.31,-1.58,3.51,8.74,-0.23,-0.79,0.08,-0.48,5.06,7.88,-0.24,-0.54,0.03,0.36,0.18,0.91,20.20,7.02,3.48,R
7.351,255,75,49,242,202,-3.38,-9.24,3.07,-1.01,-2.30,2.60,-2.47,0.96,7.13,0.08,-1.83,-0.26,-4.62,4.53,7.64,-0.02,-0.88,-0.06,-0.67,4.30,9.86,-0.06,-0.46,-0.26,-0.54,5.69,9.67,-0.23,-0.51,-0.33,0.38,0.13,0.93,12.70,-15.56,-3.97,R
7.401,255,84,51,248,208,-6.71,-5.33,11.51,-0.32,-1.50,1.66,-3.84,2.02,9.39,0.14,-0.88,-0.30,-2.14,5.16,8.15,0.18,-0.91,0.09,-0.74,4.18,7.37,0.11,-0.72,0.00,0.11,5.46,6.10,0.01,-0.47,-0.06,0.31,0.16,0.95,17.03,2.08,1.95,R
7.455,255,89,53,255,219,-3.45,-6.75,6.07,-0.10,-1.34,1.58,-2.40,1.12,7.89,0.01,-0.31,0.12,-2.15,3.43,8.89,-0.07,-0.55,-0.04,-0.61,3.36,10.03,-0.10,-0.37,-0.16,0.21,5.25,9.05,-0.33,-0.29,-0.20,0.41,0.09,0.91,17.64,0.06,-2.01,R
7.502,255,93,55,255,224,-4.73,-5.05,8.34,-0.11,0.63,0.07,-3.76,2.52,10.10,0.02,-0.16,-0.36,-1.47,5.49,7.50,-0.02,-0.29,-0.05,-0.22,3.94,7.56,0.00,-0.22,-0.03,0.22,5.09,7.27,0.06,-0.02,0.06,0.27,0.13,0.95,1.59,-8.12,-1.71,R
7.553,255,96,56,255,226,-4.25,-4.59,5.90,0.04,-0.17,0.25,-2.51,1.53,7.82,0.03,-0.06,-0.02,-1.93,4.54,8.02,-0.15,-0.18,-0.07,-0.60,4.06,9.39,-0.19,0.00,-0.12,-0.18,5.23,9.70,-0.29,-0.02,-0.05,0.39,0.09,0.95,8.67,-1.65,-0.85,R
7.607,255,95,56,255,222,-4.77,-5.61,9.08,0.04,-0.01,0.12,-3.64,2.13,10.11,0.01,-0.11,-0.02,-1.40,5.00,7.97,0.06,-0.11,0.08,-0.37,4.00,8.65,0.12,0.05,0.06,-0.02,4.98,8.86,0.13,0.05,0.01,0.33,0.09,0.95,1.28,10.38,1.77,R
7.653,255,96,57,255,228,-4.20,-5.30,5.94,0.09,-0.08,-0.08,-2.87,1.67,8.90,-0.02,0.06,-0.06,-1.57,4.41,8.77,-0.10,0.01,-0.06,-0.65,3.88,10.04,-0.07,-0.04,-0.07,0.07,5.27,8.70,-0.09,-0.07,-0.02,0.35,0.11,0.95,0.00,-5.19,-0.85,R
7.705,255,97,57,255,227,-4.49,-5.53,7.92,0.06,0.05,-0.00,-2.98,1.41,9.05,-0.02,0.09,-0.01,-1.30,4.33,7.85,-0.01,-0.00,-0.02,-0.44,3.61,8.86,0.02,0.02,-0.03,0.10,4.98,8.19,0.05,0.06,-0.02,0.34,0.11,0.93,1.89,3.72,-1.04,R
7.761,255,98,57,255,225,-4.42,-4.00,6.32,0.14,0.04,-0.13,-3.19,1.93,8.92,0.06,0.09,-0.04,-1.57,4.75,8.13,-0.01,-0.01,-0.03,-0.55,3.75,8.93,-0.07,0.05,-0.05,-0.10,4.62,9.14,-0.16,0.08,-0.06,0.38,0.10,0.95,5.07,-2.93,-2.38,R
7.811,255,96,57,255,227,-4.51,-5.59,8.31,0.10,0.17,-0.03,-3.35,1.70,9.59,0.00,0.09,-0.15,-1.30,4.61,7.95,-0.04,-0.02,-0.07,-0.16,3.89,8.23,-0.00,0.08,-0.07,-0.03,4.67,8.10,0.06,0.16,-0.07,0.30,0.10,0.93,3.48,5.86,-2.44,R
7.859,255,96,56,255,228,-4.54,-8.08,10.19,1.00,-0.67,-1.30,-3.02,0.73,9.60,0.12,0.06,-0.21,-1.67,3.59,9.30,-0.09,-0.06,-0.20,-0.65,2.93,9.55,0.07,0.13,-0.15,-0.32,4.40,8.99,0.10,0.23,-0.20,0.36,0.08,0.92,-9.28,29.17,-5.00,R
7.91,255,92,58,255,225,-5.12,-9.18,7.53,2.84,-1.87,-4.29,-2.73,2.28,8.79,0.55,0.07,-0.60,-1.66,5.09,7.40,0.24,-0.05,-0.39,-0.60,4.46,7.90,0.34,0.21,-0.26,-0.37,5.57,8.36,0.28,0.42,-0.29,0.41,0.12,0.93,-13.43,38.70,-6.23,R
7.964,255,88,57,255,222,0.65,-1.56,6.23,3.61,-2.04,-5.52,-3.69,2.19,9.08,0.57,0.61,-0.50,-1.77,4.88,8.42,0.32,0.22,-0.32,-0.89,3.95,8.95,0.32,0.31,-0.21,-0.49,4.95,8.82,0.33,0.18,-0.30,0.41,0.12,0.88,-10.86,25.15,-10.19,R
8.013,255,88,56,255,219,-1.06,-1.05,11.16,1.78,-1.26,-4.37,-2.85,2.88,7.95,0.22,-0.09,-0.47,-1.78,4.60,7.32,-0.05,-0.21,-0.36,-1.14,3.92,8.17,-0.00,-0.01,-0.47,-0.71,5.44,7.33,0.08,-0.05,-0.35,0.45,0.14,0.92,-11.84,33.75,-11.60,R
8.061,255,89,58,255,218,-0.66,4.11,5.44,1.69,-0.18,-2.77,-3.92,2.42,8.66,0.20,0.37,-0.38,-1.86,5.47,8.26,-0.08,0.03,-0.31,-1.35,5.12,9.14,0.07,0.36,-0.28,-1.13,5.67,10.18,0.08,0.39,-0.24,0.49,0.12,0.89,-7.14,18.01,-9.83,R
8.115,255,87,57,255,214,0.43,2.06,10.15,0.89,0.65,-1.07,-4.38,1.95,9.35,0.09,0.41,-0.10,-1.87,4.53,8.87,-0.06,-0.05,-0.09,-1.48,4.12,9.38,0.03,0.06,-0.14,-0.89,3.77,8.09,0.01,0.06,-0.22,0.47,0.12,0.88,0.79,9.09,-4.58,R
8.171,255,87,57,255,217,0.14,0.26,8.94,0.06,1.12,-0.47,-3.75,2.02,8.20,-0.08,0.19,-0.24,-1.68,4.09,8.24,-0.07,-0.07,-0.15,-1.11,2.90,7.94,0.29,0.20,-0.57,-1.38,4.49,8.03,0.45,0.39,-1.53,0.48,0.13,0.90,-6.47,8.73,-5.80,R
8.22,255,87,58,255,221,-0.44,-1.61,9.00,-0.90,2.40,0.88,-4.85,2.94,9.39,-0.10,0.18,0.09,-2.35,4.45,9.25,0.15,0.30,-0.34,-1.93,5.70,9.96,0.50,-0.00,-0.65,-1.78,7.12,9.46,0.26,-0.20,-1.04,0.50,0.09,0.88,-1.40,4.94,-7.51,R
8.27,251,87,58,255,231,-1.49,-3.16,10.07,-1.09,2.18,0.42,-4.39,2.26,8.99,-0.41,-0.06,-0.27,-2.01,4.19,8.23,-0.18,-0.07,-0.42,-2.33,5.84,8.82,0.51,-0.62,-1.50,-2.54,4.07,8.37,0.14,-0.31,-1.84,0.51,0.14,0.90,-19.84,-20.51,-7.87,R
8.315,248,90,58,255,243,-3.01,0.27,9.22,-1.25,0.84,0.69,-4.28,2.22,8.78,-0.12,-0.04,-0.35,-2.59,5.80,8.05,0.06,0.36,-0.57,-2.69,4.18,7.95,0.42,0.20,-1.26,-1.85,5.02,4.30,0.48,1.12,-2.21,0.45,0.14,0.87,-1.22,-3.23,-15.26,R
8.367,255,94,59,255,251,-3.15,-0.35,9.82,-0.75,-0.89,1.06,-4.01,3.51,8.50,-0.25,-0.54,0.15,-2.20,5.16,6.73,0.00,0.27,-0.21,-2.73,4.53,8.58,-0.19,0.93,-0.36,-4.26,3.53,9.13,-0.16,1.14,-1.18,0.52,0.11,0.90,-9.16,-2.26,-12.33,R
8.423,255,96,57,255,247,-2.86,-1.31,10.19,-0.39,-0.31,0.33,-3.74,0.66,8.02,-0.63,0.75,0.03,-2.97,5.09,7.74,-0.57,1.93,-0.62,-2.40,4.89,6.34,-0.23,1.65,-0.69,-4.62,6.47,6.41,0.03,1.67,-0.62,0.43,0.15,0.89,-3.11,-8.79,-16.78,R
8.474,255,101,51,248,227,-1.45,-3.38,7.96,0.05,-0.20,0.12,-4.56,1.94,8.81,-0.38,0.64,0.16,-5.16,4.30,5.15,-0.90,3.44,0.03,-4.35,4.75,6.06,-0.32,5.08,0.01,-6.05,5.65,3.49,0.42,5.48,0.66,0.55,0.11,0.92,-8.42,-5.13,-10.99,R
8.527,255,102,38,172,145,-2.84,-3.72,9.92,-0.24,0.88,0.18,-4.21,2.21,7.97,-0.31,0.65,0.42,-4.98,3.05,4.98,-1.08,2.87,0.67,-6.22,4.89,5.12,-0.54,5.27,0.48,-7.07,6.68,1.96,0.19,6.28,0.06,0.47,0.14,0.87,7.08,8.36,-8.24,R
8.573,255,101,32,123,108,-1.81,-2.06,6.34,-0.26,1.21,-0.19,-4.68,1.92,7.69,-0.22,0.76,0.02,-6.27,2.93,6.96,-0.59,1.14,0.14,-6.33,3.06,4.63,-0.67,3.05,0.27,-7.51,2.77,-0.48,-0.99,5.28,-0.10,0.53,0.12,0.88,-4.09,-23.62,-6.77,R
8.624,255,92,32,111,100,-4.45,-2.59,11.10,-0.06,0.61,-0.06,-5.51,2.99,8.72,0.02,0.45,0.08,-5.38,4.00,5.39,-0.02,0.27,0.23,-7.78,4.95,3.20,-0.28,2.55,0.68,-11.15,5.18,0.40,-1.20,4.71,-0.01,0.41,0.14,0.86,2.69,10.56,-7.57,R
8.677,255,90,33,117,102,-3.22,-2.21,8.74,-0.11,0.08,0.04,-6.00,1.44,9.93,-0.10,-0.12,-0.06,-7.28,3.26,8.42,0.28,-0.21,0.16,-6.34,3.97,-1.54,-0.90,1.83,-0.28,-11.22,3.82,2.43,-0.99,3.42,0.02,0.48,0.12,0.86,-9.58,-11.47,0.85,R
8.732,255,92,35,126,101,-4.03,-3.06,9.95,-0.06,0.09,-0.26,-5.21,2.87,9.00,0.30,-0.84,0.21,-5.66,3.17,6.13,1.43,0.07,0.47,-11.71,2.72,4.56,-0.61,3.63,-0.02,-9.96,4.68,2.37,-0.15,0.87,0.24,0.43,0.15,0.91,-9.40,12.57,4.46,R
8.779,255,92,34,113,107,-3.91,-1.37,8.73,-0.19,0.32,0.16,-3.64,0.90,7.09,0.24,-1.38,0.42,-3.58,5.40,3.28,1.72,1.28,0.10,-11.31,4.22,2.97,-0.29,3.17,-0.01,-8.97,5.04,0.31,0.29,0.09,0.19,0.45,0.14,0.87,4.03,3.36,7.51,R
8.827,255,89,33,102,106,-2.99,-2.79,8.21,-0.11,0.11,0.26,-2.77,0.02,7.45,0.43,-0.61,0.16,-7.26,5.04,5.56,0.89,1.14,0.06,-11.51,3.06,2.78,0.22,1.21,0.11,-10.18,4.11,2.60,0.52,-0.65,0.01,0.49,0.12,0.85,5.07,4.03,2.01,R
8.88,255,89,29,98,106,-4.32,-2.72,9.58,-0.05,-0.12,-0.06,-3.39,1.74,8.28,0.25,-0.26,0.12,-3.79,4.30,-0.21,1.00,4.18,-0.02,-8.84,5.20,-0.08,0.30,1.79,0.32,-7.84,4.85,-0.19,0.70,-2.90,-0.01,0.38,0.17,0.87,-1.04,3.11,5.68,R
8.93,255,81,22,88,113,-3.98,-1.61,9.08,0.65,0.00,-0.03,-3.30,2.92,8.29,0.81,0.63,0.25,-7.42,4.57,2.07,0.94,7.04,-0.37,-10.26,3.47,0.05,0.27,1.81,0.73,-11.05,4.15,3.83,1.31,-4.32,0.09,0.53,0.13,0.84,8.48,30.21,3.85,R
8.983,255,77,11,73,121,-3.35,-2.20,8.52,0.20,0.16,0.01,-3.97,3.48,8.04,0.20,0.45,0.14,-3.85,3.20,-3.70,0.64,5.19,-0.50,-5.90,4.05,-6.61,0.12,1.85,0.55,-2.96,5.91,-12.33,0.32,-2.60,0.09,0.47,0.17,0.89,4.27,3.17,7.75,R
9.034,255,69,5,58,130,-4.03,-2.19,9.10,0.49,0.85,0.20,-5.47,5.96,9.54,0.92,1.51,0.20,-7.31,6.42,-3.91,0.33,3.36,-0.03,-9.34,3.36,-2.56,-0.54,2.70,0.52,-9.84,4.72,3.17,0.10,2.24,0.32,0.57,0.13,0.84,14.47,39.55,-1.10,R
9.083,255,62,1,46,123,-3.80,-1.13,7.04,0.30,1.25,0.13,-5.19,3.16,7.18,0.30,2.22,0.35,-8.25,4.41,-4.15,0.44,2.49,-0.18,-7.26,6.64,-3.55,-0.06,2.03,0.55,-9.41,5.21,2.72,0.32,0.78,0.09,0.50,0.10,0.83,17.52,13.98,1.46,R
9.132,218,45,0,40,117,-6.32,-1.82,8.20,0.80,3.16,-0.73,-9.17,4.32,8.51,0.91,4.80,0.38,-6.33,5.66,-5.41,0.31,2.92,0.17,-5.37,5.42,-5.40,0.36,1.60,0.73,-7.83,5.30,-1.72,0.32,1.35,0.17,0.50,0.12,0.85,18.01,31.74,-0.31,R
9.186,157,31,0,35,110,-5.59,-2.39,6.58,0.56,3.23,-0.44,-5.91,4.69,4.89,1.11,4.36,0.22,-6.90,4.73,-5.94,0.32,2.38,0.03,-6.97,4.87,-5.78,-0.08,1.97,0.40,-9.28,5.20,0.96,0.24,1.10,0.23,0.62,0.08,0.83,6.90,13.37,0.73,R
9.237,89,21,0,29,102,-9.06,-1.42,6.54,1.08,4.02,-0.59,-9.99,2.12,2.78,0.63,5.52,0.05,-5.21,4.62,-6.16,0.34,2.13,0.03,-4.94,4.59,-5.98,0.01,1.47,0.33,-7.62,5.38,-2.28,0.14,1.48,0.29,0.56,0.09,0.81,7.45,27.10,-3.60,R
9.288,49,13,0,27,99,-7.97,-1.28,4.44,1.62,2.64,0.13,-10.17,3.95,0.27,0.33,5.87,-0.09,-4.29,4.64,-8.18,0.15,1.50,-0.00,-5.27,5.24,-6.91,-0.01,1.07,0.30,-9.52,5.49,0.24,0.06,1.26,0.24,0.64,0.06,0.79,3.54,25.33,-4.76,R
9.336,26,7,0,24,93,-7.82,0.17,3.62,1.13,1.71,-0.01,-8.28,4.51,-4.66,0.63,5.03,-0.36,-4.59,5.40,-7.69,0.28,0.95,-0.06,-5.19,5.63,-5.62,0.14,0.34,0.16,-7.52,4.59,-1.99,0.20,0.32,0.05,0.60,0.09,0.79,-4.64,6.53,-3.91,R
9.391,153,255,255,255,255,-7.10,-0.93,2.95,1.31,1.07,0.77,-7.36,6.15,-5.56,0.79,5.16,-0.00,-4.56,5.25,-8.40,-0.05,0.17,0.04,-6.31,5.37,-5.88,-0.03,-0.26,0.08,-8.96,5.20,-0.39,-0.07,-0.25,0.03,0.66,0.07,0.79,0.31,18.25,-6.41,R
9.448,13,0,0,31,97,-9.11,-0.43,2.69,0.81,0.91,0.23,-8.74,3.66,-5.82,0.63,3.55,-0.14,-3.49,4.93,-8.01,0.16,0.15,-0.02,-3.81,5.93,-6.68,0.16,-0.08,0.09,-6.89,6.08,-2.60,0.10,0.13,-0.06,0.60,0.09,0.77,0.73,1.04,-4.94,R
9.49,10,0,0,32,96,-9.57,0.38,2.95,0.47,0.89,-0.01,-5.57,2.95,-6.79,0.35,1.95,0.40,-3.16,4.38,-8.08,0.02,-0.16,0.04,-4.06,5.15,-7.35,0.14,-0.13,0.09,-7.83,6.16,-2.25,0.12,0.05,-0.16,0.67,0.07,0.78,5.13,3.36,-4.21,R
9.546,13,0,0,33,97,-9.44,-0.74,2.04,0.20,0.72,0.01,-5.07,3.17,-7.02,0.20,1.40,0.14,-3.60,4.01,-7.75,0.01,0.14,-0.02,-4.29,5.30,-6.66,0.08,0.16,0.01,-6.79,5.34,-4.33,0.11,0.50,-0.05,0.65,0.07,0.77,7.32,4.21,-2.20,R
9.594,15,0,1,33,93,-9.60,-0.36,1.83,0.11,0.31,0.16,-4.71,3.19,-8.20,-0.17,0.43,0.10,-3.84,4.26,-8.40,-0.13,0.34,0.06,-5.21,5.22,-6.57,-0.11,0.48,0.07,-8.23,4.87,-1.97,-0.03,0.97,0.21,0.67,0.06,0.77,5.43,10.93,-0.92,R
9.648,16,0,0,35,90,-10.10,0.23,1.84,0.13,0.40,0.07,-4.36,3.18,-7.80,-0.12,0.29,-0.06,-2.98,4.37,-8.14,-0.08,0.10,-0.06,-4.11,5.42,-6.59,-0.10,0.13,-0.01,-6.70,5.76,-3.40,-0.03,0.14,0.02,0.63,0.07,0.75,4.94,4.09,1.46,R
9.694,21,0,1,35,91,-9.73,-0.36,1.40,-0.01,0.18,0.23,-4.06,2.80,-8.21,-0.30,0.11,0.23,-3.26,4.36,-8.13,-0.25,0.25,0.07,-4.06,5.24,-7.01,-0.24,0.26,0.14,-7.11,5.41,-3.73,0.03,0.28,0.13,0.65,0.06,0.76,7.87,15.50,1.46,R
9.749,21,0,1,34,91,-9.31,-0.30,0.56,0.03,0.45,0.26,-4.35,3.86,-7.77,-0.27,0.38,0.19,-3.60,4.58,-8.00,-0.22,0.41,0.09,-4.57,5.53,-6.58,-0.13,0.39,0.18,-7.35,5.76,-3.23,0.07,0.47,0.09,0.67,0.05,0.74,9.64,20.20,1.89,R
9.796,22,0,1,34,93,-9.66,0.26,1.39,-0.09,-0.20,0.36,-4.51,3.15,-7.92,-0.31,-0.34,0.12,-3.43,4.27,-8.34,-0.23,-0.03,0.05,-4.30,5.09,-7.02,-0.17,-0.02,0.05,-7.38,5.23,-3.26,-0.06,0.04,0.14,0.72,0.05,0.75,-4.88,5.43,3.66,R
9.847,24,0,1,36,94,-9.92,0.77,1.20,-0.06,-0.06,0.16,-3.90,4.38,-7.69,-0.11,0.04,0.19,-2.46,5.24,-7.97,-0.18,0.19,0.05,-3.02,5.97,-6.75,-0.14,0.31,0.19,-5.66,5.99,-4.66,0.03,0.71,0.11,0.63,0.08,0.72,9.95,17.82,1.40,R
9.902,26,0,1,37,94,-10.81,0.84,1.38,-0.21,0.07,0.59,-4.14,3.95,-7.89,-0.76,-0.13,0.09,-2.95,4.72,-8.27,-0.55,0.35,0.17,-4.24,5.53,-7.00,-0.36,0.40,0.27,-7.73,5.84,-3.23,-0.11,0.75,0.25,0.74,0.05,0.71,11.60,36.07,7.14,R
9.951,27,0,2,37,94,-9.73,0.81,1.65,-0.09,-0.15,0.47,-5.38,4.16,-7.49,-0.45,-0.23,0.13,-3.30,5.09,-8.05,-0.42,-0.03,0.15,-3.83,6.04,-6.82,-0.28,0.14,0.17,-7.15,6.07,-3.04,-0.15,0.61,0.31,0.72,0.06,0.69,1.71,20.39,5.49,R
10.0,30,1,2,38,93,-9.42,1.46,1.30,-0.24,-0.22,0.29,-4.19,3.88,-7.14,-0.47,-1.01,0.07,-2.24,4.72,-7.83,-0.28,-0.27,0.12,-3.51,6.06,-6.58,-0.10,-0.12,0.11,-6.75,5.85,-3.42,0.02,0.21,0.02,0.73,0.05,0.67,8.36,14.16,2.81,R
10.054,33,3,3,38,96,-10.26,1.26,2.34,-0.34,-0.93,0.40,-6.68,4.89,-6.71,-0.38,-1.47,0.33,-3.39,5.41,-8.12,-0.39,-0.52,0.25,-4.14,6.49,-6.84,-0.27,-0.41,0.17,-7.24,7.16,-3.16,-0.16,-0.10,0.27,0.75,0.04,0.67,-1.53,14.22,4.39,R
10.108,38,5,3,41,96,-8.43,0.12,1.64,-0.27,-0.81,0.22,-4.03,3.48,-7.09,-0.79,-2.22,0.06,-4.03,5.22,-6.78,-0.56,-1.43,0.09,-4.96,5.87,-5.34,-0.41,-1.45,-0.03,-7.20,5.47,-2.98,-0.40,-0.99,0.06,0.80,0.06,0.68,-7.14,2.81,9.09,R
10.153,45,8,3,46,100,-11.57,4.28,5.28,-0.72,-2.82,0.51,-9.23,5.38,-4.17,-0.67,-3.26,0.16,-4.72,6.01,-6.82,-1.02,-3.27,0.22,-4.71,6.58,-5.81,-0.37,-3.15,0.11,-6.70,6.78,-3.22,-0.21,-1.31,-0.01,0.72,0.05,0.66,-8.97,-2.50,5.80,R
10.205,62,10,5,55,104,-8.12,1.60,3.38,-0.37,-0.86,-0.04,-6.33,4.80,-4.35,-0.33,-1.77,0.06,-5.08,6.18,-5.44,-0.77,-2.22,0.09,-6.29,6.75,-3.84,-0.34,-2.61,0.02,-8.24,8.40,-0.28,-0.69,-1.23,0.43,0.77,0.08,0.65,-2.62,-4.27,8.06,R
10.266,80,13,7,65,106,-10.78,4.06,7.89,-1.44,-4.35,0.74,-10.06,6.07,-0.89,-0.59,-4.05,-0.08,-11.24,8.12,-2.40,-1.71,-4.97,-0.16,-7.99,6.59,-2.35,-0.96,-6.37,-0.26,-7.59,5.59,-2.38,-1.28,-3.10,0.66,0.79,0.11,0.66,-16.97,-17.58,16.60,R
10.309,119,19,10,86,111,-6.82,1.30,5.74,-0.57,-0.85,-0.78,-6.64,1.86,-3.18,0.19,-2.01,-0.83,-7.38,5.08,-2.32,0.11,-0.62,-0.52,-5.71,5.43,-1.90,-0.92,-1.57,-0.69,-5.77,5.68,-1.38,-0.81,-1.33,0.16,0.65,0.08,0.70,-19.53,-51.15,3.66,R
10.357,165,255,255,255,255,-8.80,1.78,8.71,-0.85,-2.60,0.34,-9.70,6.15,0.87,0.14,-2.79,-0.22,-6.95,6.68,-2.28,-0.17,-0.79,0.12,-6.63,6.16,-1.14,-0.17,-1.56,0.16,-6.53,5.94,-1.34,-0.22,-0.47,0.06,0.69,0.13,0.73,-3.36,-1.53,-0.24,R
10.412,149,30,11,98,115,-6.24,0.62,6.20,-0.25,-0.15,0.08,-7.05,4.86,-0.11,-0.10,-1.96,-0.04,-6.01,5.55,-4.09,-0.33,-3.13,0.04,-7.02,6.57,-1.71,0.02,-2.23,-0.07,-7.30,7.26,0.97,-0.12,-0.68,-0.02,0.73,0.12,0.70,2.93,-0.67,3.72,R
10.465,150,32,13,98,119,-7.12,0.69,8.30,-0.05,-0.55,0.09,-8.97,5.97,1.55,-0.01,-1.28,-0.09,-7.42,6.52,-1.82,-0.22,-1.75,0.04,-7.15,7.38,0.12,-0.06,-1.22,0.01,-6.36,6.84,-0.12,-0.19,-0.54,0.20,0.69,0.12,0.72,-2.99,-2.20,0.98,R
10.513,152,35,14,106,120,-6.57,0.95,7.36,-0.02,0.01,-0.05,-8.04,4.55,2.06,-0.14,-0.58,-0.03,-6.98,5.89,-0.89,-0.19,-0.75,0.05,-6.89,5.84,0.43,-0.08,-0.55,0.00,-6.89,7.05,1.06,-0.05,-0.08,0.00,0.70,0.12,0.71,-1.04,-1.53,2.50,R
10.559,157,37,16,107,121,-6.07,0.13,6.86,-0.13,-0.33,0.11,-7.79,4.63,2.17,0.04,-0.82,-0.14,-7.90,6.56,0.24,-0.17,-1.65,-0.08,-7.36,6.58,1.44,-0.03,-1.16,-0.02,-6.91,7.11,1.36,-0.04,-0.42,-0.02,0.71,0.12,0.71,0.18,-1.22,0.85,R
10.615,156,39,17,112,123,-6.61,1.30,7.11,0.01,0.13,-0.08,-7.53,4.76,2.36,-0.02,-0.22,-0.03,-7.75,6.77,0.83,0.03,-0.30,-0.08,-7.04,6.42,1.05,0.05,-0.42,-0.02,-6.98,5.75,1.38,0.07,-0.21,-0.08,0.67,0.12,0.71,4.82,-0.37,0.61,R
10.664,157,42,18,116,127,-6.34,0.63,8.21,-0.02,-0.48,0.14,-9.01,4.34,3.91,-0.39,-2.17,-0.14,-7.49,6.24,0.98,-0.21,-2.56,-0.21,-7.47,6.34,1.94,0.05,-2.21,-0.14,-6.88,6.80,1.54,-0.22,-1.32,-0.16,0.71,0.13,0.72,-1.34,-2.44,1.40,R
10.717,174,46,22,132,132,-5.81,0.06,7.40,-0.33,-1.16,0.40,-7.14,5.01,2.55,-0.26,-1.37,-0.16,-7.12,6.51,0.94,-0.36,-2.48,-0.00,-6.80,6.71,1.68,-0.16,-1.62,-0.03,-6.99,7.30,2.56,-0.17,-0.64,0.05,0.69,0.13,0.71,0.49,-4.09,3.36,R
10.766,190,51,27,144,138,-5.41,0.49,8.56,-0.29,-0.97,0.30,-9.09,4.09,5.59,0.01,-1.13,-0.03,-7.72,5.98,2.92,-0.25,-1.96,-0.07,-6.79,5.84,3.32,-0.13,-1.39,0.00,-7.02,6.04,2.87,0.02,-0.90,-0.18,0.69,0.12,0.71,-0.37,-1.40,2.26,R
10.818,208,53,29,154,146,-4.28,0.01,7.66,-0.56,-1.49,0.54,-6.48,5.36,4.40,-0.30,-1.85,-0.09,-6.41,6.41,3.06,-0.11,-2.13,-0.02,-6.22,6.75,2.99,-0.31,-1.66,-0.09,-6.26,7.13,2.30,-0.07,-1.29,-0.39,0.69,0.13,0.72,3.30,-6.47,3.11,R
10.867,221,61,34,172,154,-4.11,-0.14,9.34,-0.44,-1.05,0.49,-6.98,3.84,6.14,-0.20,-1.55,0.02,-6.40,5.70,3.07,-0.03,-1.60,0.07,-6.56,6.61,4.61,-0.24,-1.12,-0.01,-6.54,7.17,3.31,-0.11,-0.84,0.00,0.68,0.12,0.71,3.78,-3.72,1.83,R
10.919,235,65,38,180,160,-3.70,0.12,8.97,-0.16,-1.13,0.40,-5.61,4.60,5.51,-0.19,-1.54,-0.03,-6.05,6.60,4.45,-0.27,-1.79,0.06,-5.91,6.54,4.33,-0.36,-1.28,0.03,-6.25,6.94,2.94,-0.37,-1.20,0.28,0.71,0.13,0.74,0.92,-4.21,2.56,R
10.969,241,73,42,190,165,-3.62,0.02,9.65,-0.14,-0.63,0.26,-5.31,4.24,6.30,-0.26,-1.35,-0.01,-7.17,5.81,4.66,-0.19,-1.76,0.08,-5.38,5.79,4.85,-0.25,-1.15,-0.02,-5.94,6.92,3.35,-0.21,-1.08,0.06,0.67,0.13,0.73,0.92,-3.91,3.05,R
11.023,245,79,47,199,173,-3.73,0.89,9.89,-0.12,-0.52,0.28,-4.65,4.83,7.45,-0.17,-1.40,0.02,-4.52,6.48,4.87,-0.22,-1.39,0.09,-4.82,5.47,4.77,-0.24,-0.81,0.10,-5.54,6.11,4.02,-0.08,-0.84,0.03,0.66,0.14,0.73,1.65,-2.08,2.20,R
11.071,248,86,51,209,182,-2.46,-0.11,8.81,-0.04,-0.40,0.25,-5.46,3.50,7.07,-0.15,-0.97,0.08,-4.79,5.69,6.44,-0.09,-1.60,-0.00,-4.53,6.59,6.73,-0.18,-1.25,-0.04,-5.77,6.86,5.83,-0.06,-1.41,-0.26,0.68,0.12,0.72,3.85,-1.59,-0.73,R
11.123,251,92,56,223,195,-2.78,0.31,9.70,-0.07,-0.35,0.19,-4.61,4.70,7.45,-0.11,-1.11,0.16,-3.36,6.29,6.05,-0.15,-1.36,0.06,-4.71,5.84,5.57,-0.20,-1.06,0.09,-5.15,6.76,4.81,-0.26,-0.97,0.11,0.67,0.14,0.74,2.99,-3.11,1.53,R
11.175,253,99,60,237,204,-2.45,0.19,9.50,-0.05,-0.34,0.25,-3.63,4.43,8.44,-0.03,-1.32,0.26,-3.53,5.08,6.91,-0.01,-1.23,0.19,-4.29,5.33,6.74,-0.15,-1.07,-0.15,-4.97,6.40,4.99,-0.13,-0.90,-0.10,0.69,0.12,0.74,3.91,0.18,0.18,R
11.225,255,109,63,248,212,-3.20,1.17,9.54,-0.10,-0.37,0.31,-1.89,6.30,8.93,-0.15,-1.10,0.24,-3.51,6.99,7.15,0.03,-1.38,0.13,-4.30,6.42,7.19,-0.23,-1.31,0.01,-5.33,6.29,6.33,-0.19,-1.59,-0.12,0.65,0.13,0.73,8.97,-5.62,0.31,R
11.279,255,120,66,255,226,-1.28,-0.33,8.92,-0.14,-0.58,0.57,-2.47,2.71,8.23,-0.28,-1.23,0.29,-3.01,5.74,7.25,-0.26,-1.05,0.27,-3.49,5.71,6.55,-0.39,-0.77,0.22,-4.38,6.18,5.47,-0.34,-0.72,0.23,0.68,0.11,0.74,5.19,-8.12,0.43,R
11.327,159,255,255,255,255,-1.44,-0.38,9.88,-0.41,-0.43,0.48,-2.15,4.30,8.95,-0.01,-1.14,-0.01,-1.93,6.18,8.21,-0.06,-1.07,0.17,-3.03,5.72,7.09,-0.11,-0.70,0.09,-4.22,6.67,6.96,-0.02,-0.50,0.08,0.66,0.12,0.74,1.59,-3.97,-0.43,R
11.379,164,255,255,255,255,-2.04,0.47,10.18,-0.11,-0.42,0.32,-0.84,4.44,7.77,-0.11,-0.95,0.23,-1.83,5.79,6.78,-0.16,-0.69,0.20,-3.12,5.67,6.88,-0.17,-0.49,0.06,-4.02,6.20,6.04,-0.21,-0.68,0.10,0.67,0.12,0.76,4.15,-4.21,2.14,R
11.434,158,255,255,255,255,-1.15,-0.67,9.93,-0.14,-0.28,0.31,-1.04,3.94,9.32,0.01,-0.53,0.03,-1.59,5.60,7.27,-0.14,-0.37,0.14,-2.83,5.42,8.12,-0.03,-0.31,0.07,-3.74,6.24,7.05,-0.01,-0.23,0.15,0.66,0.11,0.75,0.12,-2.99,0.67,R
11.483,154,255,255,255,255,-1.23,-0.12,10.03,-0.14,-0.22,0.25,-0.64,4.02,8.44,0.01,-0.73,-0.01,-1.44,5.71,6.91,-0.07,-0.41,0.13,-2.31,5.84,6.92,-0.09,-0.25,0.05,-3.56,6.28,6.04,-0.09,-0.21,0.10,0.67,0.11,0.76,-0.49,-3.97,0.12,R
11.536,154,255,255,255,255,-1.26,-0.28,9.85,-0.04,-0.08,0.05,-0.44,4.28,8.49,0.02,-0.16,-0.04,-1.22,6.06,7.87,-0.03,-0.17,0.01,-2.45,5.66,6.96,-0.02,-0.08,-0.01,-3.55,6.24,6.07,0.06,0.01,-0.03,0.66,0.11,0.75,0.43,0.06,-0.49,R
11.581,148,255,255,255,255,-1.00,0.00,9.72,0.01,-0.00,0.01,-0.54,4.30,8.81,0.02,0.03,-0.04,-1.15,5.59,7.09,-0.05,0.11,-0.01,-2.63,5.19,7.83,0.05,0.20,-0.15,-3.48,6.14,6.34,0.07,-0.07,-0.11,0.66,0.12,0.75,1.46,-0.61,-0.61,R
11.633,142,255,252,255,255,-0.88,-0.24,9.24,-0.04,0.17,-0.06,-0.13,4.53,7.46,-0.11,0.41,-0.13,-0.23,5.91,3.51,-0.26,1.34,-0.13,-2.27,4.96,5.43,0.00,0.87,-0.18,-3.65,6.05,5.62,0.25,0.30,-0.28,0.67,0.12,0.76,1.89,-3.23,-1.77,R
11.689,124,255,243,255,255,-1.11,-0.66,8.90,0.07,1.08,-0.62,-1.27,3.09,6.96,0.10,2.85,-0.06,-6.06,6.07,8.83,0.25,4.95,-1.06,-4.16,3.72,7.47,0.87,2.13,-0.61,-4.27,3.21,5.77,0.68,0.95,-1.21,0.65,0.11,0.72,5.31,8.42,-2.32,R
11.734,245,96,34,222,227,-1.53,-1.29,7.84,-0.07,2.99,-1.21,-3.25,6.43,7.47,0.28,5.64,-0.58,-9.04,4.43,4.48,0.86,6.88,-0.34,-4.36,7.32,3.91,1.06,3.15,-0.69,-5.30,8.37,4.98,0.66,1.44,-1.36,0.66,0.11,0.78,1.53,2.38,-6.47,R
11.788,157,255,255,255,255,-4.07,0.39,8.82,0.56,3.52,-0.72,-6.01,6.67,6.72,0.07,4.10,0.29,-8.82,7.56,4.61,0.74,6.32,0.12,-6.59,7.75,6.31,0.32,3.32,0.07,-6.41,5.90,5.34,0.15,1.08,-0.41,0.67,0.11,0.74,0.98,6.53,-7.02,R
11.838,154,46,13,135,192,-5.11,0.98,9.13,0.47,2.78,-0.66,-5.34,3.74,6.53,-0.31,2.89,0.34,-6.31,5.53,-1.11,0.47,4.23,-0.06,-6.05,6.55,2.08,0.33,3.07,0.03,-6.38,4.88,3.77,0.11,1.06,-0.45,0.68,0.11,0.74,1.16,2.14,-2.81,R
11.89,104,36,9,106,181,-7.21,0.37,8.33,0.72,3.03,-0.79,-8.48,4.74,7.00,0.10,3.35,0.24,-8.67,7.21,2.57,0.50,4.62,0.21,-7.68,8.15,4.36,0.87,3.19,0.01,-7.20,5.42,4.93,0.19,1.51,-0.26,0.65,0.10,0.73,-0.37,7.63,-9.16,R
11.936,80,29,6,90,165,-7.08,-0.31,6.50,0.67,2.21,-0.40,-8.90,3.65,4.03,0.14,3.01,0.02,-8.58,6.25,-0.27,0.52,3.32,-0.18,-7.53,6.29,2.29,0.52,2.92,0.15,-7.80,5.77,4.72,0.16,1.31,-0.13,0.69,0.09,0.74,4.03,3.97,-3.78,R
11.99,63,26,5,73,153,-7.63,-0.54,5.13,0.38,1.97,-0.41,-9.09,3.42,3.21,0.12,2.84,-0.06,-7.88,5.69,-1.75,0.44,2.84,-0.21,-7.76,7.05,1.19,0.41,2.91,0.08,-7.39,6.17,3.34,0.28,1.46,-0.21,0.67,0.09,0.73,3.48,1.10,-6.53,R
12.042,50,21,3,64,140,-8.29,-1.15,4.29,0.48,1.74,-0.19,-7.99,3.77,1.92,0.28,2.70,-0.06,-7.82,6.25,-2.34,0.33,2.48,-0.16,-8.03,6.32,0.87,0.37,2.57,0.02,-7.97,5.84,3.73,0.24,0.93,-0.22,0.69,0.07,0.73,8.85,11.29,-5.25,R
12.09,46,18,3,56,136,-8.97,0.32,4.31,0.42,1.37,-0.14,-8.79,4.33,-0.67,0.33,2.34,-0.02,-6.04,5.82,-5.61,0.39,1.91,-0.18,-7.03,7.00,-2.18,0.32,2.84,-0.16,-6.48,6.65,0.02,-0.11,1.98,0.06,0.71,0.06,0.72,5.92,-0.85,-4.76,R
12.145,39,13,2,49,123,-9.28,0.26,3.61,0.40,1.07,-0.17,-7.69,4.41,-1.52,0.16,1.98,0.02,-5.96,5.54,-5.16,0.33,2.03,-0.12,-7.05,6.47,-1.85,0.34,2.29,-0.03,-7.51,5.78,1.16,0.12,1.53,-0.03,0.69,0.08,0.72,6.41,7.45,-4.33,R
12.193,36,13,1,46,114,-8.56,-0.33,2.59,0.30,1.11,-0.11,-7.96,4.75,-1.83,0.25,1.85,0.10,-5.20,5.60,-5.64,0.39,1.72,-0.18,-6.81,6.27,-2.87,0.30,2.20,-0.07,-7.52,6.53,0.45,0.20,1.55,-0.04,0.70,0.07,0.72,10.38,4.33,-4.70,R
12.244,38,11,1,41,108,-9.76,0.28,2.50,0.37,0.93,0.02,-7.99,4.95,-3.17,0.09,1.85,0.09,-5.82,6.11,-5.44,0.24,1.66,-0.13,-6.84,6.68,-3.26,-0.13,1.93,0.13,-7.55,6.28,-0.10,0.05,1.57,0.10,0.69,0.06,0.72,8.30,11.41,-2.44,R
12.296,36,8,1,37,98,-9.80,0.21,2.63,0.36,0.88,-0.04,-8.68,4.66,-2.75,0.10,1.44,0.13,-5.12,5.13,-6.85,0.25,1.38,-0.02,-6.70,6.46,-4.34,0.14,1.69,-0.05,-7.95,5.41,-0.06,0.17,1.48,0.10,0.73,0.03,0.71,6.16,6.71,-2.38,R
12.351,39,7,1,34,93,-9.82,-0.11,1.98,0.24,0.62,-0.11,-7.31,4.60,-3.64,0.18,1.18,0.02,-4.50,5.63,-6.55,0.35,1.39,-0.11,-6.16,6.54,-4.12,0.11,1.95,-0.03,-7.69,6.04,-0.41,0.24,2.20,0.12,0.69,0.04,0.70,6.16,2.32,-4.46,R
12.4,40,8,0,30,82,-10.16,0.45,2.33,0.00,0.42,0.18,-8.12,3.80,-3.80,-0.00,1.04,0.22,-4.76,4.76,-6.20,0.15,1.80,0.01,-5.46,6.06,-4.86,0.09,1.85,0.03,-7.96,6.72,-0.39,0.07,2.46,0.02,0.73,0.03,0.70,12.94,13.37,-2.75,R
12.457,44,6,0,27,78,-9.88,0.06,2.00,0.06,0.30,0.19,-7.10,4.66,-4.15,0.13,0.82,0.11,-3.33,5.60,-7.53,0.27,1.43,-0.11,-4.38,6.57,-5.97,0.14,1.58,-0.07,-6.12,6.15,-3.60,0.21,1.78,-0.03,0.73,0.03,0.70,10.50,6.10,-3.30,R
12.501,45,7,0,24,75,-9.79,0.40,1.33,-0.09,0.35,0.28,-7.21,5.03,-4.77,-0.23,0.72,0.18,-2.34,5.04,-7.97,-0.03,1.03,-0.01,-3.66,6.05,-6.38,0.06,1.47,0.02,-7.42,6.62,-2.69,-0.04,2.18,-0.08,0.73,0.01,0.68,17.88,15.69,-1.28,R
12.551,47,6,0,22,73,-9.49,0.25,1.35,0.05,0.37,0.28,-7.08,4.57,-4.85,-0.05,0.68,0.29,-2.48,4.66,-8.65,0.06,1.21,0.02,-3.59,5.75,-7.70,0.14,1.76,0.01,-5.95,6.37,-6.02,0.30,2.51,0.23,0.75,-0.00,0.68,12.45,12.39,-3.23,R
12.602,49,6,0,17,68,-10.00,0.89,1.28,-0.03,0.31,0.21,-7.38,5.43,-5.41,-0.15,0.49,0.22,-0.63,5.12,-8.24,0.01,1.45,-0.00,-2.01,5.93,-6.74,0.07,1.75,0.08,-5.10,6.41,-5.28,0.31,2.35,0.35,0.70,0.02,0.66,14.89,15.69,0.37,R
12.653,52,7,0,16,62,-10.11,0.97,1.16,-0.03,0.50,0.54,-6.84,5.04,-5.29,-0.27,0.78,0.42,-1.17,4.98,-8.86,-0.12,1.54,0.04,-3.21,6.19,-7.27,0.01,1.77,0.12,-5.45,6.29,-5.49,0.24,2.49,0.30,0.78,-0.04,0.64,21.12,31.01,-0.12,R
12.71,50,6,0,13,56,-9.56,0.67,0.83,-0.11,0.15,0.25,-6.29,4.73,-5.53,-0.15,0.34,0.24,-0.79,5.15,-7.74,-0.02,1.13,0.00,-1.84,6.46,-6.55,0.04,1.29,0.04,-3.22,6.07,-6.18,0.29,1.84,0.22,0.74,0.00,0.63,9.34,10.31,-0.12,R
12.755,52,5,0,13,55,-9.99,1.47,0.25,-0.05,0.38,0.44,-5.63,5.30,-5.47,-0.19,0.83,0.45,0.06,4.89,-8.19,-0.18,1.10,0.04,-1.88,6.12,-7.14,-0.02,1.30,0.13,-4.41,6.10,-5.70,0.24,1.99,0.24,0.79,-0.04,0.62,20.94,28.14,-0.61,R
12.808,51,4,0,11,49,-9.74,1.70,0.66,-0.04,0.39,0.37,-5.92,5.16,-5.63,-0.30,0.54,0.22,0.24,5.03,-8.19,-0.12,0.83,0.02,-1.47,5.95,-7.04,0.02,1.02,0.06,-3.07,5.87,-6.56,0.36,1.42,0.26,0.82,-0.04,0.61,11.60,14.65,-0.92,R
12.861,52,4,0,10,44,-9.61,1.03,0.21,-0.07,0.26,0.24,-5.37,5.75,-5.75,-0.13,0.60,0.25,1.13,5.25,-8.42,-0.13,0.71,0.03,0.33,5.88,-7.99,-0.01,0.99,0.08,-0.97,6.08,-8.92,0.32,1.54,0.19,0.78,-0.04,0.61,15.69,18.43,-1.83,R
12.914,50,4,0,9,42,-10.16,1.91,0.14,-0.09,0.30,0.33,-5.63,6.37,-6.11,-0.24,0.55,0.21,0.50,5.52,-8.33,-0.23,0.60,-0.03,0.22,6.65,-7.72,-0.10,0.62,0.09,-1.65,5.52,-7.05,0.10,1.12,0.24,0.83,-0.07,0.58,13.79,19.84,2.26,R
12.962,52,3,0,10,42,-9.26,1.65,0.21,-0.09,0.22,0.29,-5.10,5.40,-6.17,-0.21,0.41,0.16,2.18,4.85,-8.45,-0.16,0.39,0.01,0.88,6.20,-7.73,-0.07,0.54,0.05,-0.50,5.65,-8.32,0.10,0.64,0.04,0.84,-0.06,0.58,12.57,14.22,0.49,R
13.012,52,4,0,8,39,-10.49,2.01,0.03,-0.13,0.20,0.42,-5.28,6.66,-6.09,-0.26,0.53,0.35,1.07,5.82,-8.29,-0.31,0.77,-0.00,0.83,6.55,-7.78,-0.25,0.74,0.14,-0.80,6.11,-8.05,0.06,0.93,0.21,0.82,-0.07,0.55,16.24,28.69,2.50,R
13.063,52,5,0,8,40,-9.64,2.09,0.26,-0.15,0.12,0.41,-4.67,6.00,-6.14,-0.38,0.16,0.21,1.83,5.21,-8.24,-0.25,0.55,-0.03,1.14,5.95,-7.31,-0.17,0.79,0.05,-0.79,5.17,-7.78,0.11,1.00,0.13,0.86,-0.07,0.56,7.57,17.33,4.33,R
13.115,53,5,0,7,38,-9.79,2.66,-0.09,-0.10,0.16,0.26,-5.33,6.76,-5.98,-0.28,0.14,0.23,1.42,5.95,-7.83,-0.30,0.37,0.04,0.82,7.06,-6.88,-0.23,0.60,0.10,0.67,6.08,-7.56,0.02,0.90,0.20,0.80,-0.06,0.50,10.93,19.35,1.10,R
13.164,54,4,0,8,38,-8.83,2.03,0.05,-0.04,0.07,0.47,-4.33,5.76,-5.62,-0.32,0.11,0.35,2.29,4.84,-7.74,-0.29,0.34,0.02,1.25,6.03,-7.34,-0.15,0.45,0.06,-0.05,5.34,-7.95,0.00,0.53,0.10,0.90,-0.08,0.51,6.29,20.63,3.17,R
13.219,56,4,0,8,38,-9.25,2.88,-0.03,0.01,0.08,0.09,-4.69,6.60,-5.77,-0.08,0.04,0.11,1.88,5.95,-7.80,-0.11,0.13,0.03,1.92,6.84,-7.19,-0.12,0.14,0.09,1.40,6.27,-8.01,-0.00,0.32,0.09,0.84,-0.07,0.48,2.93,5.19,-2.14,R
13.271,53,5,0,8,40,-9.14,2.97,-0.54,-0.00,0.11,0.23,-3.95,6.63,-5.52,-0.16,0.16,0.27,2.78,5.32,-7.30,-0.15,0.48,0.03,1.77,6.24,-6.87,-0.04,0.55,0.07,0.73,5.68,-7.82,0.10,0.58,0.05,0.90,-0.08,0.49,7.63,14.47,0.06,R
13.318,55,4,0,8,38,-9.57,3.01,0.01,0.00,0.02,0.10,-4.59,7.13,-5.84,-0.08,-0.03,0.19,2.13,6.16,-7.76,-0.13,0.01,0.00,1.57,7.10,-6.88,-0.13,-0.06,0.01,1.57,5.97,-7.91,-0.08,0.08,0.04,0.87,-0.07,0.47,0.31,3.05,0.31,R
13.368,56,4,0,10,39,-9.56,3.05,-0.22,0.04,0.05,0.15,-3.90,6.90,-5.61,-0.11,0.08,0.23,2.60,5.84,-7.27,-0.21,0.19,-0.01,2.10,6.66,-6.85,-0.17,0.19,0.06,1.52,5.90,-7.94,-0.06,0.29,0.07,0.88,-0.08,0.47,3.91,13.12,2.93,R
13.418,56,4,0,11,40,-9.18,2.89,-0.22,-0.09,-0.12,0.25,-4.52,7.13,-6.02,-0.22,-0.14,0.21,2.07,6.19,-7.47,-0.25,-0.19,-0.01,1.74,6.74,-6.85,-0.19,-0.10,0.01,1.34,4.94,-7.75,-0.09,-0.02,-0.00,0.91,-0.08,0.47,-0.43,8.97,4.15,R
13.472,54,4,0,11,44,-9.59,3.27,-0.15,-0.05,-0.01,0.10,-3.87,6.87,-5.47,-0.08,0.06,0.10,2.30,6.24,-7.16,-0.22,-0.26,0.00,2.07,7.14,-6.43,-0.17,-0.19,0.07,1.39,6.30,-7.32,-0.14,-0.01,0.04,0.85,-0.06,0.45,3.91,7.45,1.89,R
13.522,54,4,0,16,42,-9.65,3.31,0.03,-0.05,-0.13,0.37,-4.08,7.35,-5.75,-0.18,-0.06,0.37,2.66,6.22,-7.61,-0.47,-0.36,0.05,1.86,6.57,-6.79,-0.32,-0.04,0.09,1.52,5.93,-7.68,-0.15,0.15,0.13,0.91,-0.07,0.45,0.00,18.68,6.10,R
13.571,56,6,1,15,45,-9.51,3.54,0.09,-0.10,-0.28,0.37,-4.17,7.30,-5.53,-0.25,-0.18,0.39,2.31,6.68,-7.03,-0.48,-0.23,0.04,2.39,7.38,-6.21,-0.42,-0.05,0.17,2.41,6.37,-7.34,-0.22,0.28,0.21,0.85,-0.05,0.41,3.66,25.21,5.13,R
13.622,57,5,1,17,46,-9.39,3.75,0.21,-0.12,-0.05,0.88,-2.87,6.87,-4.82,-0.67,0.10,0.66,2.51,5.93,-6.47,-0.77,0.55,0.06,2.14,6.75,-6.06,-0.56,0.59,0.29,1.43,6.06,-6.97,-0.24,0.82,0.36,0.92,-0.05,0.38,13.37,51.82,10.31,R
13.673,57,7,2,20,48,-9.03,4.36,0.30,-0.12,-0.27,1.07,-3.51,7.80,-5.05,-0.74,0.07,0.69,2.52,7.32,-6.31,-0.85,0.44,0.08,2.94,7.95,-4.93,-0.73,0.52,0.31,3.96,6.40,-6.91,-0.33,0.80,0.49,0.89,-0.04,0.33,13.43,55.66,11.41,R
13.723,53,6,2,20,50,-9.64,4.84,0.02,-0.35,0.15,1.87,-2.05,8.31,-4.70,-1.35,0.69,1.31,3.42,7.54,-5.69,-1.50,1.54,0.16,3.28,7.66,-5.34,-1.16,1.69,0.62,3.06,5.43,-7.27,-0.33,1.96,0.76,0.94,-0.02,0.23,42.24,114.44,16.85,R
13.779,53,5,3,22,51,-8.28,5.17,1.15,-0.39,0.11,2.18,-2.61,8.69,-4.15,-1.43,0.69,1.35,2.43,8.01,-5.70,-1.54,1.42,0.15,3.02,8.56,-4.59,-1.24,1.49,0.62,4.09,6.58,-6.75,-0.43,1.91,0.84,0.98,-0.03,0.11,35.95,109.68,19.96,R
13.829,51,7,2,22,51,-7.88,6.70,0.19,-0.43,0.22,2.27,-0.68,9.14,-3.62,-1.62,1.00,1.40,4.80,8.21,-4.16,-1.68,1.93,0.13,5.16,8.25,-3.94,-1.32,2.14,0.69,5.53,6.24,-6.24,-0.30,2.45,0.94,0.96,0.00,0.04,50.48,129.09,19.96,R
13.878,50,5,4,22,51,-6.75,7.14,0.90,-0.50,0.29,2.74,-1.36,9.33,-3.08,-1.92,0.98,1.59,3.04,8.49,-4.52,-1.87,1.73,0.15,3.94,8.48,-3.83,-1.55,1.69,0.71,4.27,6.68,-5.74,-0.56,1.98,0.95,1.05,-0.04,-0.08,49.80,134.09,23.56,R
13.929,47,5,3,23,54,-4.89,7.19,0.36,-0.34,0.27,2.15,0.37,9.00,-1.77,-1.60,0.84,1.22,4.57,8.06,-2.00,-1.66,1.54,0.04,5.54,7.64,-1.64,-1.33,1.67,0.57,7.36,6.05,-4.90,-0.33,2.09,0.84,0.97,0.02,-0.14,36.74,111.27,21.85,R
13.978,47,5,3,24,52,-5.97,7.98,1.32,-0.44,0.27,2.59,0.32,9.22,-1.31,-1.95,0.84,1.60,4.78,7.97,-1.86,-2.11,1.77,0.23,5.03,6.97,-1.41,-1.65,2.02,0.87,5.30,5.20,-3.86,-0.53,2.39,1.15,0.98,0.03,-0.30,45.47,142.40,19.84,R
14.029,47,6,3,24,54,-2.74,8.32,0.94,-0.35,0.34,2.17,1.59,9.13,-0.14,-1.60,0.71,1.28,4.10,8.65,-0.43,-1.71,1.25,0.08,5.62,7.93,-0.20,-1.45,1.31,0.58,8.41,5.88,-3.20,-0.61,1.60,1.03,0.90,0.07,-0.40,29.79,107.42,20.57,R
14.081,46,6,3,24,52,-2.91,8.60,1.25,-0.32,0.07,2.10,2.55,8.30,0.93,-1.62,0.69,1.34,4.59,7.37,1.54,-1.86,1.45,0.15,6.00,6.22,1.54,-1.47,1.56,0.73,6.99,2.75,-1.84,-0.42,1.86,1.07,0.90,0.09,-0.47,32.96,118.77,16.78,R
14.131,47,6,4,24,53,-0.69,9.25,1.10,-0.25,0.23,1.77,3.13,9.41,1.62,-1.15,0.70,1.05,4.43,8.91,1.84,-1.25,1.08,0.17,5.47,7.75,2.42,-1.02,1.03,0.54,8.83,5.60,-0.86,-0.26,1.18,0.71,0.81,0.12,-0.56,32.17,85.94,9.64,R
14.182,43,8,4,24,54,-1.43,9.67,1.25,-0.28,0.30,1.77,2.85,9.16,1.97,-1.40,0.81,1.15,4.65,8.01,2.93,-1.76,1.38,0.13,6.45,6.32,3.12,-1.48,1.52,0.71,8.54,4.11,-0.11,-0.38,2.06,1.01,0.74,0.16,-0.63,32.47,103.88,13.67,R
14.233,45,7,4,28,55,1.34,9.76,1.15,-0.24,0.34,1.73,3.99,8.14,3.37,-1.21,0.69,1.08,4.05,7.14,3.83,-1.26,0.87,0.18,5.19,6.60,4.09,-1.00,0.79,0.58,8.56,4.83,1.01,-0.23,1.23,0.65,0.74,0.14,-0.67,29.30,89.97,9.64,R
14.285,43,7,4,28,53,0.80,9.66,1.04,-0.21,0.18,1.57,3.72,8.23,3.24,-1.24,0.55,0.94,4.39,7.21,4.34,-1.44,1.10,0.08,6.35,5.41,4.17,-1.21,1.18,0.47,9.15,2.49,0.93,-0.61,1.71,0.88,0.65,0.20,-0.71,26.86,83.50,11.78,R
14.335,43,6,7,28,52,2.66,9.32,1.44,-0.23,0.37,1.38,4.21,6.86,4.36,-1.05,0.55,0.92,3.38,6.75,4.92,-1.18,0.90,0.27,5.13,5.36,5.07,-0.90,0.91,0.62,7.78,3.88,2.45,-0.14,1.05,0.68,0.61,0.20,-0.77,27.16,70.68,3.91,R
14.389,43,7,3,28,54,1.80,9.12,1.74,-0.22,0.28,1.10,4.48,7.78,4.41,-1.13,0.46,0.53,4.80,7.14,5.58,-1.19,0.66,0.01,6.72,5.22,5.52,-1.03,0.87,0.32,9.21,2.78,2.37,-0.67,1.18,0.59,0.54,0.25,-0.78,14.59,58.29,11.11,R
14.439,43,8,4,28,53,3.45,9.35,1.85,-0.12,0.23,1.02,4.53,5.83,5.55,-0.94,0.43,0.52,2.73,5.74,6.72,-0.96,0.66,0.08,5.30,4.26,6.34,-0.74,0.59,0.35,8.70,1.05,2.91,-0.23,0.75,0.52,0.53,0.22,-0.81,18.01,53.77,6.59,R
14.49,42,7,4,28,63,3.41,9.22,1.82,-0.15,0.09,0.89,4.84,6.65,5.57,-0.70,0.26,0.52,3.75,6.20,6.67,-0.84,0.56,0.14,5.56,4.09,6.44,-0.68,0.63,0.40,8.63,2.03,3.51,-0.16,0.81,0.47,0.47,0.26,-0.84,12.45,45.17,4.15,R
14.544,37,7,4,28,54,3.94,8.45,2.17,-0.08,-0.04,0.75,4.61,5.41,5.96,-0.54,0.25,0.45,3.35,4.94,7.05,-0.69,0.37,0.14,5.25,3.24,6.79,-0.51,0.38,0.30,8.14,1.51,3.94,-0.15,0.45,0.35,0.47,0.26,-0.84,5.86,36.19,4.88,R
14.591,42,7,5,30,52,4.26,8.40,1.93,-0.02,-0.03,0.51,4.79,6.01,5.90,-0.42,0.08,0.32,3.40,5.71,7.46,-0.55,0.33,0.03,6.31,4.30,7.11,-0.47,0.35,0.18,9.27,1.91,4.01,-0.20,0.53,0.27,0.41,0.28,-0.88,5.49,27.71,5.13,R
14.643,40,7,5,28,51,4.58,8.26,2.03,-0.11,-0.02,0.59,5.46,5.58,6.42,-0.54,0.26,0.19,3.24,4.96,7.84,-0.56,0.43,-0.12,5.39,2.97,7.35,-0.47,0.38,0.07,8.04,1.26,4.67,-0.18,0.44,0.07,0.42,0.29,-0.88,12.45,27.65,9.16,R
14.692,40,8,5,30,51,4.25,8.97,1.77,-0.23,-0.03,0.35,4.85,5.39,6.35,-0.48,0.09,0.10,3.17,5.24,7.89,-0.49,0.32,-0.19,5.70,3.37,7.63,-0.48,0.37,0.01,8.99,1.37,4.52,-0.27,0.54,0.02,0.35,0.30,-0.87,8.00,16.97,10.25,R
14.745,38,8,5,31,52,4.60,7.84,2.12,-0.24,0.04,0.47,5.12,4.44,6.76,-0.75,0.35,-0.06,3.09,4.51,8.15,-0.54,0.61,-0.32,4.27,3.03,8.03,-0.48,0.47,-0.07,8.00,0.99,5.21,-0.27,0.54,-0.02,0.34,0.31,-0.88,18.31,27.34,12.76,R
14.796,38,8,3,31,52,4.62,8.09,2.30,-0.21,-0.01,0.50,4.41,4.38,6.83,-0.64,0.29,-0.00,2.84,4.73,8.13,-0.50,0.36,-0.21,5.79,3.06,7.60,-0.49,0.34,0.01,8.96,1.75,4.83,-0.31,0.78,-0.01,0.28,0.33,-0.87,13.55,19.65,9.83,R
14.847,34,8,5,30,52,5.46,7.61,2.15,-0.27,-0.02,0.67,4.46,5.05,6.96,-0.73,0.17,0.15,3.29,3.71,7.94,-0.75,0.28,-0.26,5.27,1.39,7.99,-0.69,0.24,-0.12,7.12,1.90,5.71,-0.49,0.85,-0.12,0.34,0.34,-0.90,15.44,31.37,6.84,R
14.897,33,8,5,31,53,5.09,8.67,2.07,-0.31,-0.17,0.62,4.75,4.76,7.43,-0.84,0.14,-0.15,3.00,4.70,8.36,-0.59,0.15,-0.35,5.50,2.51,8.51,-0.78,-0.19,-0.23,8.70,0.80,5.97,-0.62,-0.26,-0.19,0.28,0.36,-0.89,14.34,19.35,13.37,R
14.95,32,8,4,32,55,5.81,7.24,3.12,-0.33,-0.11,0.70,4.51,3.90,7.48,-0.84,0.05,0.07,2.16,3.81,8.73,-0.65,0.33,-0.30,5.36,1.82,7.83,-0.62,0.30,-0.01,8.17,1.05,5.32,-0.48,0.66,0.02,0.26,0.37,-0.90,21.00,25.21,12.88,R
15.002,32,8,5,33,54,5.28,7.01,3.29,-0.31,-0.23,0.70,4.20,4.01,7.57,-0.77,0.00,0.04,1.01,3.62,8.41,-0.61,0.19,-0.27,4.29,1.97,8.01,-0.58,0.25,-0.02,7.02,1.00,5.96,-0.46,0.34,0.07,0.25,0.37,-0.89,13.49,19.53,13.43,R
15.051,29,9,4,32,54,5.51,7.37,2.79,-0.22,-0.22,0.53,4.04,3.54,7.63,-0.67,-0.00,0.03,1.26,3.86,8.66,-0.56,0.10,-0.25,4.90,1.91,8.24,-0.61,0.04,0.04,8.18,0.98,5.50,-0.43,0.33,0.10,0.21,0.39,-0.89,8.73,19.47,14.10,R
15.1,28,9,5,33,55,6.05,7.19,2.84,-0.17,-0.28,0.57,4.69,2.78,8.05,-0.52,-0.14,0.21,1.64,3.08,8.56,-0.58,-0.07,-0.03,3.60,2.63,9.40,-0.58,-0.29,0.06,7.85,1.03,5.86,-0.60,-0.18,0.00,0.21,0.40,-0.89,6.96,20.81,13.12,R
15.151,28,10,6,33,56,6.42,7.40,2.97,0.02,-0.23,0.47,5.40,3.20,7.79,-0.44,-0.11,0.11,0.95,3.52,8.93,-0.43,-0.01,-0.19,3.65,0.99,8.47,-0.53,-0.22,0.01,6.84,0.35,6.34,-0.44,-0.49,-0.03,0.20,0.39,-0.86,-6.23,15.01,10.01,R
15.209,26,8,5,36,59,7.57,7.22,1.81,0.22,-0.24,0.19,4.54,2.74,8.00,-0.09,-0.01,0.11,2.34,2.44,8.85,-0.26,-0.35,0.01,6.07,0.49,7.24,-0.24,-0.40,0.09,9.04,0.60,4.81,-0.16,-0.22,0.06,0.16,0.41,-0.89,-7.45,9.03,4.03,R
15.255,26,7,5,39,62,6.40,6.73,2.26,0.04,-0.23,0.28,4.98,2.39,8.12,-0.17,-0.14,0.17,1.28,2.39,9.21,-0.33,-0.12,0.03,4.92,0.54,8.16,-0.28,-0.18,0.14,6.94,-0.39,6.10,-0.25,-0.07,0.13,0.16,0.39,-0.91,-2.50,13.79,4.70,R
15.307,26,8,5,39,62,7.41,6.98,2.09,0.28,-0.08,-0.06,5.57,3.06,8.21,0.11,-0.01,0.06,2.35,2.75,9.88,-0.10,-0.31,0.05,6.39,0.71,8.40,-0.05,-0.33,0.02,8.81,-0.26,5.29,-0.03,-0.24,-0.04,0.14,0.40,-0.91,-7.14,-0.55,0.00,R
15.357,26,9,6,39,63,6.84,6.88,2.14,-0.04,0.10,0.09,4.67,2.60,7.92,-0.08,0.10,0.12,1.34,2.72,9.00,-0.20,-0.12,0.06,5.29,0.56,7.99,-0.14,-0.16,0.10,7.94,0.60,5.62,-0.07,-0.09,0.02,0.15,0.39,-0.91,4.46,7.14,0.73,R
15.408,29,8,5,40,63,7.18,6.45,2.60,0.04,0.05,-0.18,4.93,2.62,8.14,0.09,-0.06,-0.03,1.94,2.17,9.59,0.00,-0.25,-0.01,5.84,0.29,8.05,0.06,-0.25,-0.07,8.79,0.04,5.39,0.06,-0.24,-0.13,0.17,0.39,-0.90,-3.23,-6.41,-1.22,R
15.459,30,9,6,40,52,6.17,6.80,2.22,0.03,-0.02,0.16,5.23,2.55,8.23,-0.00,0.31,0.11,1.56,2.31,9.21,-0.12,-0.04,0.07,5.09,0.16,7.97,-0.03,-0.14,0.06,7.52,-0.37,5.51,0.04,-0.12,-0.12,0.19,0.38,-0.90,8.00,9.28,-2.50,R
15.508,30,8,6,42,66,7.24,7.19,1.70,0.06,-0.14,-0.16,4.93,2.53,7.95,0.33,0.10,0.06,2.10,2.43,9.31,0.06,-0.38,0.09,5.95,0.20,8.03,0.11,-0.45,0.02,8.44,-0.39,5.33,0.07,-0.29,-0.13,0.13,0.40,-0.89,-1.59,-7.14,-5.00,R
15.559,31,10,7,44,69,6.56,6.58,2.48,-0.05,-0.07,-0.02,5.34,2.58,8.26,0.21,0.34,0.06,2.25,2.18,9.24,-0.06,-0.40,0.16,6.25,0.28,7.60,0.15,-0.38,0.12,8.20,-0.02,5.01,0.11,-0.17,-0.08,0.14,0.40,-0.90,10.31,2.56,-6.47,R
15.611,33,8,7,46,69,8.59,5.35,1.72,0.33,0.53,-0.30,5.23,1.89,8.36,0.89,1.41,0.30,2.39,2.28,9.51,0.16,-0.44,0.25,6.45,0.29,8.02,0.37,-0.63,0.07,8.76,-0.28,5.24,0.36,-0.33,-0.20,0.15,0.41,-0.89,11.84,-5.31,-16.42,R
15.662,36,11,8,50,70,5.93,6.68,2.74,0.04,0.36,-0.07,3.89,2.86,8.32,0.22,0.69,0.18,1.10,2.75,9.02,-0.32,-0.95,0.30,4.94,0.57,7.69,-0.04,-1.16,0.18,7.07,0.71,5.29,0.02,-0.19,-0.11,0.19,0.40,-0.90,16.97,5.86,-9.03,R
15.714,36,11,9,56,71,7.41,7.22,2.30,0.01,-0.09,-0.41,5.78,3.86,9.37,0.48,0.49,-0.16,4.13,2.45,9.18,0.05,-2.23,-0.25,7.47,0.54,6.99,0.26,-2.03,-0.51,9.27,0.13,4.25,0.28,-0.99,-0.60,0.21,0.42,-0.88,-4.39,-26.67,-12.02,R
15.768,43,10,10,64,72,5.98,6.93,2.98,-0.72,0.16,-1.03,0.41,3.91,7.92,0.37,-1.00,-0.23,4.34,3.37,7.87,-0.05,-2.49,-0.15,7.59,2.61,5.58,-0.01,-1.97,-0.62,8.94,2.98,4.18,-0.12,-0.89,-0.48,0.17,0.41,-0.92,17.03,-28.50,-7.81,R
15.816,53,14,11,72,75,6.09,7.18,3.16,-0.59,-1.03,-0.24,5.43,3.87,7.22,-0.58,-2.56,-0.16,5.98,2.19,6.44,-0.15,-2.46,-0.42,8.06,0.61,4.55,-0.04,-1.52,-0.62,9.15,-0.20,2.68,-0.02,-0.93,-0.54,0.30,0.42,-0.84,-5.86,-23.19,-4.46,R
15.866,60,13,12,78,76,7.02,7.47,2.42,-0.66,0.28,-1.25,6.06,2.44,7.77,0.38,-0.37,-0.53,7.10,1.58,5.55,0.60,-2.30,-0.67,7.60,0.60,4.28,0.42,-1.43,-1.05,8.09,0.84,3.43,0.27,-1.01,-1.08,0.30,0.41,-0.91,5.86,-58.17,-17.64,R
15.918,65,14,12,84,76,4.96,8.14,3.08,-0.51,0.51,-1.94,5.78,5.77,7.07,0.95,-0.61,-1.09,7.31,3.97,5.08,0.80,-0.98,-1.04,9.16,3.09,3.43,0.41,-0.98,-1.41,10.10,2.70,2.33,0.15,-1.13,-1.18,0.28,0.44,-0.86,-13.12,-83.44,-15.56,R
15.969,71,16,14,86,78,4.25,8.00,3.86,0.06,0.01,-1.29,4.31,4.60,7.23,0.60,-0.62,-0.89,6.01,3.11,6.10,0.78,-0.47,-0.91,7.21,2.03,3.85,0.44,-0.72,-1.18,7.15,2.27,3.24,0.04,-0.99,-1.15,0.41,0.38,-0.82,-11.23,-60.91,-23.38,R
16.019,78,17,14,87,79,3.53,7.68,2.76,-0.42,-0.58,-1.23,5.08,5.09,5.79,0.19,-1.00,-1.12,6.91,5.21,5.06,0.62,-0.87,-1.06,9.31,4.37,2.67,0.31,-0.84,-1.21,10.78,4.04,0.47,0.01,-0.95,-1.03,0.36,0.40,-0.81,-6.90,-67.57,-14.16,R
16.07,81,20,13,90,78,3.10,8.15,4.39,-0.24,-0.68,-0.83,3.84,4.01,6.62,0.66,-1.38,-0.77,4.60,3.88,5.57,0.51,-1.08,-0.84,5.40,3.13,4.18,0.39,-1.20,-1.07,6.34,3.27,2.63,0.13,-1.19,-1.13,0.53,0.34,-0.78,-11.17,-54.63,-19.96,R
16.12,100,21,13,93,79,4.38,7.94,2.07,-0.96,-2.51,-0.62,6.13,7.73,4.72,0.66,-3.19,-1.53,5.09,6.92,2.51,0.65,-3.70,-1.30,7.00,6.22,1.86,0.05,-2.89,-1.78,8.81,5.52,0.56,-0.34,-1.82,-1.20,0.49,0.37,-0.76,-34.12,-83.80,-11.84,R
16.171,114,25,15,98,81,2.81,8.19,4.19,-0.61,-1.05,-1.08,5.06,5.23,4.97,0.28,-1.65,-1.41,6.81,4.64,3.34,0.22,-3.60,-1.05,7.80,4.10,0.21,-0.17,-2.48,-1.37,7.81,3.50,-0.23,-0.29,-1.98,-1.15,0.58,0.33,-0.74,-15.62,-72.02,-15.50,R
16.225,130,28,16,100,80,3.17,10.05,1.58,-1.07,-1.69,-0.75,6.30,7.84,3.41,0.42,-2.47,-1.56,8.21,7.50,-0.22,0.32,-2.80,-1.41,8.67,6.98,-1.13,-0.15,-2.00,-1.75,9.17,5.79,-2.28,-0.25,-2.09,-1.45,0.63,0.33,-0.67,-16.30,-91.00,-14.77,R
16.276,143,32,19,106,85,3.85,7.27,3.28,-0.81,-0.27,-1.14,4.48,6.59,2.74,0.37,-0.64,-1.68,5.75,6.36,0.17,-0.02,-1.07,-1.75,5.11,6.59,-0.05,-0.20,-1.18,-1.92,5.34,6.06,-1.17,-0.28,-1.78,-1.78,0.82,0.26,-0.63,-2.26,-92.65,-18.25,R
16.324,153,35,19,107,83,2.54,9.00,3.85,-1.30,-0.15,-1.78,4.26,8.86,2.77,-0.00,-1.19,-2.56,5.26,8.13,0.24,-0.07,-1.70,-2.38,5.82,8.29,-1.45,-0.44,-1.77,-2.41,6.84,7.36,-3.50,-0.62,-2.24,-2.06,0.78,0.27,-0.57,-19.17,-142.21,-12.63,R
16.376,158,38,20,108,88,1.55,7.47,5.28,-1.34,-0.56,-1.67,2.99,9.24,2.42,-0.01,-1.32,-2.53,4.20,8.65,-0.32,-0.20,-1.59,-2.33,4.23,8.58,-1.35,-0.49,-1.54,-2.21,4.23,8.26,-2.40,-0.72,-2.17,-2.01,0.84,0.25,-0.45,-21.36,-126.77,-16.11,R
16.427,165,42,21,109,88,0.97,8.52,4.50,-1.61,-0.36,-1.79,1.90,9.43,2.37,-0.29,-1.36,-2.75,3.31,10.16,-0.75,-0.48,-1.65,-2.44,3.75,9.64,-1.68,-0.89,-1.70,-2.30,4.34,8.77,-3.79,-1.03,-2.31,-1.97,0.90,0.23,-0.35,-22.89,-141.30,-5.37,R
16.481,174,46,22,112,90,-0.18,7.38,6.84,-1.60,-0.32,-1.42,0.92,9.02,2.30,-0.40,-1.11,-2.27,2.57,9.31,-1.13,-0.36,-1.25,-2.09,3.01,8.91,-1.70,-0.63,-1.51,-1.94,2.95,9.47,-3.33,-0.90,-1.96,-1.75,0.91,0.24,-0.24,-13.67,-122.68,-8.00,R
16.53,180,48,23,115,93,0.29,6.42,6.37,-1.52,-0.28,-1.42,-0.42,8.38,3.09,-0.37,-1.10,-2.46,0.20,9.30,0.15,-0.43,-1.08,-2.25,0.06,9.17,-0.09,-0.72,-1.63,-2.09,0.68,9.64,-2.28,-1.07,-2.29,-1.72,0.98,0.20,-0.14,-24.54,-127.20,-6.53,R
16.58,184,51,24,120,96,-1.14,6.03,7.11,-1.68,-0.07,-1.67,-1.33,10.11,2.52,-0.51,-0.98,-2.59,0.60,11.61,-0.45,-0.46,-1.35,-2.22,0.66,11.12,-1.56,-1.11,-1.44,-2.06,1.35,10.08,-3.64,-1.22,-1.99,-1.52,0.94,0.21,0.00,-33.51,-129.94,-0.79,R
16.633,184,55,23,123,99,-1.50,5.01,8.36,-1.57,0.02,-1.44,-2.60,8.58,3.39,-0.73,-0.72,-1.95,-0.98,9.26,0.07,-0.52,-1.01,-1.85,-0.80,8.89,-0.55,-0.86,-1.47,-1.53,0.11,9.18,-2.71,-1.16,-1.85,-1.21,0.95,0.20,0.07,-23.25,-104.74,-2.87,R
16.683,188,57,24,128,100,-2.37,4.72,8.51,-1.20,-0.15,-1.32,-3.44,8.48,3.54,-0.41,-0.90,-1.98,-1.72,9.98,-0.16,-0.42,-1.27,-1.66,-1.60,10.17,0.10,-0.75,-1.50,-1.45,-1.36,10.49,-1.22,-1.00,-1.93,-1.15,0.94,0.21,0.18,-30.82,-97.53,-2.38,R
16.732,191,59,24,130,105,-2.12,4.38,8.65,-1.29,-0.00,-1.34,-3.54,8.59,3.83,-0.51,-0.71,-1.88,-2.00,9.32,0.84,-0.44,-1.20,-1.49,-2.12,9.16,0.57,-0.70,-1.33,-1.20,-1.27,9.32,-1.44,-1.03,-1.52,-0.92,0.90,0.22,0.24,-29.72,-91.61,-1.89,R
16.784,195,61,26,131,106,-2.25,3.39,8.78,-0.95,-0.08,-1.41,-4.64,6.13,4.52,-0.48,-0.32,-1.57,-3.96,8.81,1.47,-0.24,-1.17,-1.56,-3.55,9.71,1.68,-0.52,-1.39,-1.38,-3.10,9.94,0.82,-0.85,-1.66,-1.08,0.93,0.20,0.33,-34.42,-89.90,-7.08,R
16.835,197,64,26,137,106,-1.58,2.42,8.08,-1.58,0.12,-1.73,-4.81,6.45,4.60,-0.58,-0.56,-2.17,-3.92,8.65,1.68,-0.22,-1.58,-1.83,-3.10,8.18,1.25,-0.87,-1.25,-1.76,-2.05,9.02,-0.85,-1.19,-1.63,-1.28,0.87,0.22,0.39,-41.32,-121.70,-5.07,R
16.888,201,62,27,137,107,-3.15,1.60,9.84,-1.22,0.33,-1.54,-5.72,5.79,5.13,-0.19,-0.44,-1.87,-4.87,7.55,1.88,-0.12,-1.12,-1.63,-4.28,8.08,2.88,-0.39,-1.37,-1.47,-3.55,8.65,1.72,-0.71,-1.75,-1.12,0.79,0.24,0.46,-23.07,-91.00,-18.43,R
16.939,204,65,28,139,110,-2.87,2.07,7.83,-1.01,0.23,-1.74,-6.10,5.44,4.84,-0.05,-0.52,-2.31,-5.66,8.81,1.75,-0.22,-1.36,-1.96,-4.98,8.87,2.92,-0.71,-1.74,-1.80,-5.06,9.46,3.17,-1.12,-2.11,-1.56,0.84,0.21,0.55,-36.99,-115.84,-21.06,R
16.991,207,65,28,144,112,-2.90,0.44,8.35,-1.80,0.67,-1.93,-5.90,4.90,4.84,-0.62,-0.72,-2.48,-6.44,7.21,3.07,-0.48,-1.45,-2.33,-5.38,7.90,3.64,-1.00,-1.85,-2.20,-4.41,8.52,2.62,-1.32,-2.51,-1.82,0.74,0.23,0.61,-29.11,-144.29,-24.23,R
17.04,210,67,29,148,117,-4.65,-0.46,9.72,-1.70,0.91,-1.81,-7.66,4.68,6.50,-0.41,-0.92,-2.43,-6.37,7.47,2.74,-0.24,-1.86,-2.14,-5.39,7.98,3.63,-0.88,-2.38,-1.98,-4.41,9.09,2.96,-1.37,-2.92,-1.67,0.62,0.23,0.69,-20.39,-130.25,-28.87,R
17.091,214,68,31,157,123,-3.88,-1.98,8.85,-1.15,0.76,-1.64,-7.28,2.33,5.66,-0.32,-0.77,-2.02,-6.63,5.67,3.54,-0.27,-1.94,-2.01,-5.24,6.10,4.34,-0.75,-2.17,-1.78,-4.57,7.13,4.99,-1.24,-2.83,-1.36,0.60,0.22,0.76,-19.29,-110.23,-34.73,R
17.139,215,70,32,167,132,-5.44,-0.93,8.63,-1.00,1.01,-1.50,-7.79,3.76,6.62,-0.19,-0.73,-2.06,-6.84,6.84,3.59,-0.07,-2.03,-1.73,-5.00,7.58,4.63,-0.70,-2.45,-1.51,-3.16,7.98,4.41,-1.12,-3.21,-1.04,0.46,0.21,0.80,-11.05,-97.90,-34.61,R
17.194,215,73,34,179,146,-4.83,-3.45,9.44,-0.55,0.44,-0.89,-7.24,2.22,6.55,-0.22,-0.98,-0.96,-7.05,4.45,4.65,-0.14,-1.74,-1.09,-5.16,4.85,6.13,-0.47,-1.78,-0.84,-3.39,7.22,6.39,-0.94,-2.19,-0.53,0.54,0.18,0.87,-3.23,-49.38,-30.58,R
17.243,215,74,38,193,161,-4.82,-1.23,6.66,-0.25,0.61,-0.97,-6.47,1.99,6.03,-0.12,-0.85,-1.56,-5.55,5.38,5.08,-0.18,-1.81,-1.25,-4.54,7.27,6.54,-0.66,-1.68,-1.34,-1.81,7.18,5.94,-1.00,-1.75,-0.54,0.43,0.21,0.85,1.83,-62.62,-31.07,R
17.294,225,82,42,209,170,-5.30,-4.88,9.67,-0.34,0.44,-0.39,-7.17,2.09,7.94,-0.11,-0.69,-0.42,-6.47,4.41,5.72,-0.30,-1.30,-0.36,-4.13,4.46,7.28,-0.25,-0.86,-0.28,-2.22,6.00,7.46,-0.56,-1.11,-0.05,0.44,0.14,0.89,9.46,-14.47,-23.25,R
17.345,234,85,44,222,178,-3.71,-4.24,6.84,0.47,0.08,-1.12,-6.91,0.11,7.14,0.04,-0.21,-0.59,-5.83,3.71,7.45,-0.32,-1.20,-0.57,-4.44,3.82,8.80,-0.44,-1.06,-0.65,-1.86,5.09,8.41,-0.83,-1.12,-0.06,0.47,0.15,0.89,-1.59,-29.36,-27.77,R
17.395,248,87,47,235,182,-4.59,-3.41,8.42,-0.27,0.23,-0.70,-6.54,2.38,7.58,-0.02,-0.34,-0.58,-4.70,5.31,6.29,-0.04,-1.21,-0.27,-2.99,4.77,6.61,-0.33,-1.08,-0.17,-0.57,5.56,6.06,-0.59,-0.67,0.42,0.32,0.17,0.86,9.64,-14.95,-19.78,R
17.448,255,92,50,248,187,-3.73,-6.84,7.56,1.13,-0.76,-1.75,-5.92,0.83,6.96,0.08,-0.38,-0.14,-5.19,1.76,7.39,-0.28,-0.57,-0.07,-3.98,2.83,10.15,-0.47,-0.44,-0.03,-0.95,3.72,9.60,-0.39,-0.19,-0.18,0.51,0.08,0.95,0.06,-2.69,-23.62,R
17.496,255,96,53,255,195,-4.63,-2.85,9.63,-0.20,0.10,-0.91,-6.49,2.32,7.65,0.11,-0.15,-0.45,-6.66,3.75,6.89,-0.01,-0.61,-0.13,-2.66,3.63,7.23,-0.59,-0.78,0.13,-0.88,4.44,7.90,-0.12,-0.43,0.11,0.35,0.14,0.90,3.66,-16.30,-13.67,R
17.553,255,98,55,255,200,-3.54,-3.31,8.34,0.06,-0.14,-0.67,-5.77,0.53,7.22,0.02,-0.09,-0.22,-4.69,2.10,8.14,-0.20,-0.97,-0.20,-3.41,3.28,10.36,-0.49,-0.93,-0.30,-1.41,4.75,9.89,-0.25,-0.63,-0.15,0.51,0.08,0.96,-2.14,-11.84,-14.95,R
17.6,255,101,58,255,207,-3.62,-1.14,8.42,-0.41,0.22,-0.87,-6.02,1.65,7.75,-0.32,-0.43,-0.55,-5.19,4.27,6.87,-0.39,-0.79,-0.38,-0.63,3.12,8.40,-1.30,-0.86,-0.16,-0.14,4.87,8.19,-1.24,-0.63,0.00,0.31,0.14,0.91,5.19,-37.17,-12.63,R
17.65,255,104,59,255,213,-3.48,-3.98,8.36,-1.09,-0.14,-0.32,-6.68,0.10,7.67,-0.15,0.05,-0.48,-4.71,3.08,8.57,-0.36,-0.22,-0.37,-2.39,2.11,9.61,-0.69,-0.26,-0.26,-0.79,3.90,9.94,-0.73,-0.05,-0.27,0.46,0.07,1.02,6.59,-32.47,-16.17,R
17.701,255,107,61,255,215,-3.78,-6.10,8.87,-1.56,0.60,-0.44,-6.90,0.84,8.69,-0.23,0.21,-0.56,-4.62,2.95,9.14,-0.23,-0.20,-0.44,-2.31,2.08,10.44,-0.34,-0.26,-0.36,-0.73,3.77,10.26,-0.35,-0.12,-0.31,0.28,0.09,1.00,4.64,-35.58,-13.92,R
17.752,255,105,61,255,216,-3.67,-4.87,7.65,-1.45,0.04,0.11,-6.86,0.17,8.62,-0.13,0.09,-0.42,-4.64,2.85,9.34,-0.22,-0.18,-0.34,-2.01,2.72,10.22,-0.34,-0.16,-0.35,-0.59,4.13,10.17,-0.38,-0.18,-0.23,0.34,0.09,1.02,-8.06,-25.15,-8.18,R
17.804,255,105,61,255,216,-3.01,-7.64,6.89,-1.80,-0.31,0.60,-6.63,0.05,8.77,-0.22,-0.03,-0.43,-4.27,2.48,8.83,-0.32,-0.20,-0.27,-1.87,2.04,9.86,-0.24,-0.19,-0.32,-0.07,3.34,9.22,-0.36,-0.32,-0.20,0.29,0.12,0.99,-12.21,-28.50,-3.91,R
17.859,255,105,60,255,215,-3.56,-5.20,7.81,-1.09,-0.10,0.77,-5.73,0.73,7.89,-0.14,-0.05,-0.43,-3.53,3.74,7.83,-0.23,0.01,-0.26,-1.32,3.53,9.00,-0.26,0.11,-0.21,0.37,4.60,9.27,-0.24,0.02,-0.08,0.30,0.20,0.99,-7.26,-22.71,0.00,R
17.908,255,107,60,255,212,-3.60,-8.05,6.29,-1.17,-0.26,0.94,-6.07,0.48,8.15,-0.51,0.07,-0.11,-4.31,2.57,8.58,-0.51,0.05,-0.03,-1.87,1.67,10.24,-0.48,0.04,0.04,-0.29,3.49,10.47,-0.67,-0.15,-0.03,0.29,0.13,1.01,6.90,-29.91,16.78,R
17.963,255,105,59,255,209,-4.10,-7.77,5.34,-1.51,-0.01,0.46,-6.27,-0.36,7.66,-0.95,0.02,-0.31,-4.27,2.38,8.09,-0.98,-0.09,-0.12,-1.77,1.70,9.39,-0.98,0.00,0.10,-0.34,2.63,10.26,-0.97,-0.27,0.14,0.16,0.12,1.06,7.51,-59.39,27.71,R
18.01,255,104,58,255,208,-4.43,-7.75,4.58,-1.48,-0.12,0.42,-6.52,-1.36,7.87,-1.18,0.06,-0.21,-4.64,1.09,9.20,-1.35,-0.06,0.00,-2.22,0.31,10.86,-1.25,-0.06,0.22,-0.17,2.02,11.26,-1.21,-0.38,0.33,0.15,0.08,1.06,16.17,-65.12,43.70,R
18.064,255,102,58,255,209,-4.13,-8.78,3.66,-1.76,-0.04,0.41,-6.37,-2.75,7.58,-1.51,0.18,-0.42,-4.30,0.29,9.03,-1.59,-0.07,-0.12,-1.70,-0.05,10.46,-1.58,-0.23,0.25,0.20,1.58,10.04,-1.67,-0.36,0.58,0.05,0.10,1.06,11.66,-87.46,50.29,R
18.109,255,99,56,255,210,-4.32,-9.09,3.07,-2.04,0.06,0.17,-6.38,-2.97,7.44,-1.64,0.28,-0.58,-4.29,-0.28,8.78,-1.91,-0.15,-0.12,-1.55,-0.64,9.49,-1.78,-0.17,0.33,0.08,-0.06,9.99,-1.73,-0.17,0.67,-0.05,0.08,1.01,11.47,-91.80,53.28,R
18.166,255,94,56,255,211,-4.25,-8.90,2.30,-1.73,-0.01,0.06,-6.07,-3.57,6.74,-1.57,0.01,-0.56,-3.87,-1.30,8.27,-1.98,-0.10,-0.18,-1.48,-1.21,9.02,-1.77,-0.18,0.31,0.55,0.19,9.21,-1.69,0.00,0.63,-0.10,0.07,0.98,12.82,-90.76,54.99,R
18.211,255,95,54,255,208,-4.64,-8.70,2.16,-1.82,-0.05,0.32,-5.95,-3.53,6.31,-1.74,0.08,-0.26,-3.96,-2.32,8.62,-1.90,0.11,0.13,-1.50,-2.76,8.83,-1.63,0.01,0.62,-0.16,-1.90,10.67,-1.53,-0.08,0.82,-0.22,0.06,0.95,20.08,-80.08,58.11,R
18.265,255,92,53,255,210,-3.88,-8.33,0.25,-1.82,-0.11,0.11,-5.71,-5.71,5.95,-1.66,-0.03,-0.41,-4.36,-3.01,8.76,-1.87,0.00,-0.09,-1.74,-3.36,9.23,-1.74,-0.11,0.37,0.23,-1.86,8.62,-1.62,0.08,0.73,-0.21,0.02,0.95,10.68,-88.32,54.69,R
18.313,255,92,52,255,208,-4.93,-8.15,0.75,-1.77,0.04,0.28,-5.45,-4.26,5.04,-1.60,-0.06,-0.34,-3.58,-3.28,6.15,-1.74,0.04,0.02,-1.50,-4.01,7.21,-1.53,0.14,0.47,-0.36,-2.84,8.87,-1.38,0.35,0.67,-0.32,0.02,0.91,23.68,-74.77,47.55,R
18.364,255,91,53,255,207,-4.28,-8.40,-0.86,-1.50,0.01,0.53,-5.43,-6.92,4.52,-1.34,0.34,-0.16,-4.34,-5.32,7.35,-1.59,0.38,-0.17,-1.98,-5.20,8.54,-1.39,0.24,0.12,-0.58,-3.51,9.32,-1.40,0.16,0.35,-0.31,-0.05,0.89,28.02,-65.73,34.91,R
18.418,255,88,51,255,208,-5.06,-7.95,-1.01,-1.48,0.37,0.53,-5.38,-6.27,4.21,-1.32,0.57,-0.51,-4.01,-4.98,5.45,-1.51,0.45,-0.28,-1.39,-4.37,5.95,-1.44,0.40,0.18,0.00,-3.96,6.20,-1.20,0.53,0.30,-0.46,-0.05,0.87,31.92,-69.21,27.77,R
18.468,255,89,52,255,208,-6.13,-7.66,-0.28,-0.69,-0.06,1.00,-5.70,-5.63,3.15,-1.00,0.92,0.46,-4.58,-5.68,6.22,-0.85,0.92,0.33,-2.43,-6.87,7.00,-0.43,1.04,0.48,-1.77,-5.62,9.56,-0.16,1.25,0.24,-0.52,-0.11,0.85,50.96,-11.23,21.67,R
18.518,255,91,51,255,208,-5.87,-4.95,-3.83,-0.43,0.05,1.18,-6.09,-8.19,3.12,-0.76,0.86,0.25,-4.77,-4.41,5.49,-0.76,0.77,-0.01,-2.56,-4.56,5.37,-0.93,1.31,-0.03,-0.96,-3.73,6.09,-0.76,1.24,0.03,-0.42,-0.17,0.93,53.10,-31.07,17.94,R
18.568,255,90,52,255,206,-8.18,-8.70,-0.99,-0.66,0.35,2.07,-6.57,-6.17,0.95,-0.73,1.57,0.73,-5.55,-7.79,3.88,-0.68,2.46,0.46,-4.83,-9.75,4.71,-0.04,4.28,0.54,-4.53,-8.27,8.82,0.81,2.81,-0.07,-0.75,-0.19,0.82,86.49,3.78,10.93,R
18.62,255,94,51,249,191,-8.72,-6.19,-1.17,1.02,-0.62,2.74,-8.17,-6.51,1.93,0.82,1.93,1.30,-7.22,-4.69,4.69,1.09,2.11,0.58,-5.71,-3.60,5.42,1.09,2.60,0.03,-4.16,-2.09,6.60,1.63,3.64,-0.45,-0.46,-0.36,0.94,118.77,88.87,8.30,R
18.668,255,90,47,227,178,-11.14,-6.74,-1.80,0.81,-0.91,3.38,-9.15,-4.89,-1.25,0.16,2.98,1.79,-8.13,-6.17,-1.27,-0.22,3.94,1.27,-7.68,-6.97,-1.03,0.11,5.08,1.24,-8.69,-5.73,4.63,1.40,5.82,0.30,-0.53,-0.42,0.85,149.48,94.30,35.89,R
18.724,255,84,45,199,165,-10.70,-4.71,1.59,2.04,-1.41,3.09,-9.94,-4.58,0.14,1.19,3.08,1.87,-11.24,-3.19,0.93,1.32,5.34,1.02,-11.78,-1.86,2.63,1.56,6.62,0.82,-9.97,-0.43,4.74,1.89,6.12,-0.47,-0.28,-0.49,0.71,162.23,151.73,54.87,R
18.774,255,88,41,186,158,-9.31,-1.09,-2.06,1.63,-1.81,2.72,-10.79,-1.15,0.84,0.07,2.33,1.94,-11.92,0.09,3.43,-0.10,4.15,1.23,-11.69,-0.45,6.14,-0.21,4.28,1.36,-10.44,3.06,5.94,0.26,5.42,1.00,-0.03,-0.57,0.62,125.79,97.23,81.79,R
18.823,255,90,39,181,148,-10.61,-2.62,4.76,0.83,-2.41,2.56,-10.55,-1.24,-0.45,-1.45,1.77,2.11,-10.26,-0.52,1.14,-1.27,2.30,2.00,-8.94,0.13,0.82,-0.89,2.55,2.17,-8.54,1.13,2.92,-0.02,3.29,1.98,-0.18,-0.55,0.60,78.55,109.74,125.49,R
18.875,255,87,39,179,141,-9.64,-4.30,5.79,2.04,-5.41,2.69,-11.26,0.42,-0.46,-0.95,1.36,3.88,-10.50,1.01,-2.17,-0.74,2.26,3.78,-10.25,1.25,-2.49,-0.44,2.93,3.96,-9.64,2.94,-2.50,0.49,4.38,3.89,0.03,-0.50,0.47,65.43,194.27,159.79,R
18.929,255,87,38,174,127,-8.64,-0.37,5.20,2.33,-4.82,2.11,-12.97,-0.31,0.13,-0.64,0.27,4.51,-13.28,1.44,1.03,-0.53,1.56,4.35,-13.62,1.50,2.87,-0.38,1.80,4.51,-12.77,3.36,2.21,-0.05,3.35,4.65,0.41,-0.64,0.44,21.67,194.52,174.62,R
18.977,255,88,38,178,122,-8.98,2.88,7.36,2.29,-5.69,2.94,-12.58,3.77,-2.25,-1.26,-1.00,4.48,-12.39,4.22,-3.37,-1.00,-0.30,4.97,-11.35,5.00,-3.87,-0.96,-0.02,5.01,-10.03,8.03,-3.40,-0.68,0.48,4.94,0.55,-0.54,0.39,-7.51,191.77,200.93,R
19.028,255,89,39,180,127,-4.52,-0.02,8.28,1.88,-4.04,1.51,-11.64,-0.28,-0.24,-0.25,-1.07,5.42,-11.58,0.07,-0.76,0.01,0.53,5.61,-11.37,1.43,-1.60,0.70,0.41,5.54,-9.45,2.75,-4.58,1.26,1.48,5.06,0.77,-0.45,0.25,-28.81,240.36,162.11,R
19.081,255,88,37,184,127,-4.63,7.81,6.92,2.21,-4.09,2.51,-8.22,7.35,-3.98,-0.48,-1.56,3.88,-8.19,9.41,-5.26,0.68,0.15,4.46,-8.55,10.65,-2.82,0.41,-0.42,4.47,-7.60,13.37,-2.33,0.08,0.25,4.75,1.03,-0.35,0.11,-8.12,166.99,170.17,R
19.132,255,87,37,181,132,-0.97,3.04,7.56,1.78,-4.38,0.78,-8.45,4.98,0.26,0.23,-1.39,4.90,-8.09,5.03,-1.75,0.12,-0.09,5.46,-7.63,4.66,-3.27,0.98,-0.15,5.69,-7.46,4.94,-2.64,1.01,0.29,5.55,0.87,-0.21,0.05,-45.10,218.93,144.84,R
19.182,255,87,36,189,135,0.06,6.83,7.87,2.74,-4.70,1.22,-6.03,6.83,-0.71,0.60,-1.91,4.56,-5.72,7.02,-2.97,0.76,-0.10,4.57,-6.24,8.07,-1.80,1.27,-0.31,4.18,-4.76,9.28,-2.51,1.44,-0.18,4.09,1.20,-0.19,-0.16,-40.10,207.40,143.68,R
19.234,255,87,35,183,136,2.19,6.49,1.38,1.50,-2.92,-0.76,-3.29,5.56,-0.60,0.14,-2.44,3.19,-3.65,5.06,-2.77,0.00,-1.05,3.37,-4.59,4.36,-1.59,0.22,-0.77,3.62,-3.63,5.02,-2.73,-0.03,-0.64,3.48,1.11,-0.08,-0.17,-101.20,112.85,106.81,R
19.285,255,87,34,189,136,1.90,10.36,8.23,1.70,-4.06,-0.65,-2.81,10.29,0.86,0.03,-2.64,1.54,-2.32,9.28,-2.27,0.18,-2.18,2.26,-2.93,11.45,-1.94,0.18,-2.24,2.18,-1.24,11.67,-1.74,-0.03,-1.92,2.49,0.99,-0.00,-0.27,-114.44,67.02,79.90,R
19.337,255,88,35,178,134,3.82,7.08,-2.58,-0.32,-2.31,-1.53,-0.04,7.37,-2.21,-0.79,-3.31,0.92,-0.76,3.82,-4.20,-1.81,-2.69,1.58,-2.50,4.51,-3.27,-1.63,-1.95,1.68,-2.57,4.90,-2.51,-1.97,-1.65,1.79,1.22,0.12,-0.26,-136.23,13.67,99.85,R
19.388,255,88,36,183,130,2.52,11.65,4.21,-1.63,-2.53,-0.88,-0.71,11.90,0.19,-1.15,-2.78,-1.51,-0.76,12.15,-2.94,-0.84,-3.05,-0.10,0.12,12.88,-5.90,-1.29,-3.18,-0.09,2.73,12.29,-8.71,-1.60,-2.73,0.52,0.73,0.09,-0.33,-141.36,-112.24,72.33,R
19.438,255,88,36,174,128,3.70,9.21,-3.95,-2.02,-1.41,-0.98,1.54,9.31,-3.40,-1.58,-2.75,-0.93,2.67,8.42,-3.05,-2.89,-2.78,-0.52,-2.29,6.63,-0.09,-2.78,-2.07,-0.26,-3.24,7.44,2.49,-3.93,-1.85,-0.14,1.46,0.14,-0.10,-96.56,-69.64,81.36,R
19.491,255,87,37,187,130,4.81,4.79,6.33,-4.39,-1.18,0.58,-0.12,8.46,2.20,-3.89,-1.95,-2.63,-0.40,9.22,-1.02,-3.48,-2.82,-2.17,0.20,10.75,-4.09,-3.59,-3.17,-1.96,1.73,10.89,-6.06,-3.81,-3.04,-1.16,0.58,0.28,-0.09,-75.44,-243.04,63.90,R
19.54,255,88,36,165,136,4.56,6.41,0.74,-3.48,-0.72,-0.64,-0.98,6.84,2.60,-2.31,-1.37,-2.73,-3.62,7.97,3.39,-2.97,-2.58,-2.16,-4.99,8.58,6.79,-3.14,-2.58,-1.96,-4.58,12.08,7.94,-4.04,-2.91,-1.72,1.25,0.09,0.19,-85.82,-221.19,39.61,R
19.589,255,90,37,184,138,4.34,3.98,4.86,-5.50,0.77,-0.57,-2.84,7.18,4.74,-3.38,-1.65,-4.19,-2.67,10.34,1.12,-3.27,-3.49,-3.29,-2.23,11.62,0.04,-4.07,-4.14,-2.72,-1.55,12.66,1.01,-4.99,-4.10,-2.05,0.79,0.39,0.32,-15.99,-290.83,30.94,R
19.64,255,90,40,188,147,5.08,1.96,3.14,-5.45,-0.01,0.08,-3.20,3.79,6.52,-4.07,-1.53,-3.57,-3.79,6.39,6.68,-5.02,-3.00,-4.25,-4.50,10.13,8.31,-5.87,-4.50,-3.34,-3.03,11.98,4.02,-5.80,-4.47,-2.56,0.98,0.29,0.43,-45.90,-358.52,12.76,R
19.695,255,90,39,204,159,4.90,-1.30,-1.46,-8.40,3.93,-0.01,-5.25,1.36,8.88,-3.10,-0.74,-4.44,-2.98,7.48,4.25,-2.52,-2.51,-3.13,-0.31,8.29,1.87,-3.43,-2.80,-2.22,1.13,7.91,3.06,-4.50,-2.46,-1.24,0.40,0.39,0.78,33.26,-294.01,-39.25,R
19.743,255,87,42,222,170,-0.10,-6.64,20.44,-3.63,0.59,0.06,-5.02,4.68,7.01,-2.39,-1.01,-1.83,-4.24,3.35,7.79,-3.25,-1.54,-2.16,-1.75,4.58,10.28,-3.94,-1.98,-1.42,-0.23,5.44,6.59,-3.18,-2.22,-0.71,0.24,0.18,0.81,15.20,-188.42,-25.15,R
19.796,255,90,43,242,182,1.48,-3.57,8.26,-2.42,1.54,-0.44,-4.61,-1.36,7.41,-1.64,0.85,-1.65,-3.67,2.88,6.38,-1.44,-0.72,-1.08,-1.46,2.38,7.52,-1.39,-0.51,-0.72,0.28,3.22,7.49,-1.75,-0.54,-0.57,0.32,0.21,1.06,10.80,-92.77,-32.35,R
19.853,255,93,45,252,187,-2.75,-3.62,15.03,-2.34,3.26,-0.24,-8.44,-0.49,13.74,-0.69,-0.31,-1.15,-6.28,0.84,9.64,-0.80,-0.83,-1.21,-1.38,2.50,9.32,-1.54,-1.40,-0.97,0.68,3.51,8.70,-1.58,-1.13,-0.86,0.32,0.12,0.90,19.53,-103.58,-33.14,R
19.901,255,94,48,255,195,-1.00,-8.80,9.02,-1.41,1.44,-0.52,-4.73,-0.91,7.56,-0.41,0.04,-0.53,-2.94,0.50,7.95,-0.51,-0.71,-0.45,-1.07,-0.13,8.86,-0.54,-0.28,-0.49,0.73,0.88,8.81,-0.83,-0.22,-0.68,0.10,0.22,1.03,20.32,-19.84,-30.94,R
19.949,255,96,51,255,201,-1.50,-4.61,7.47,-0.63,1.89,-1.07,-7.37,-3.17,11.27,0.01,0.63,-0.39,-3.89,0.84,9.59,0.27,-0.49,-0.52,-0.24,0.86,8.37,0.07,-0.17,-0.51,1.03,2.32,7.62,0.32,0.20,-0.50,-0.02,0.15,0.90,14.53,-8.61,-37.35,R
19.996,255,97,54,255,204,-2.61,-5.18,10.42,0.79,0.13,-0.19,-5.17,-0.36,7.19,0.80,0.06,0.19,-4.38,1.71,8.74,0.61,-0.37,-0.10,-0.69,1.03,9.38,0.35,0.02,-0.26,0.22,2.92,9.53,0.43,0.57,-0.29,0.32,0.08,0.97,13.18,45.78,-29.48,R
20.052,255,99,57,255,204,-1.79,-4.07,6.35,0.66,0.78,-0.61,-5.07,-0.39,7.34,0.65,0.33,-0.11,-3.21,2.58,7.59,0.73,-0.04,-0.08,-1.53,1.93,7.11,0.47,0.30,-0.16,-0.11,2.73,6.63,0.87,1.19,-0.14,0.12,0.10,0.91,23.19,29.72,-24.72,R
20.098,255,101,60,255,204,-2.68,-3.25,9.57,1.46,-0.25,0.59,-5.54,1.14,7.51,1.12,0.11,0.79,-4.33,3.23,8.14,1.07,0.40,0.44,-1.81,2.19,9.72,1.02,0.93,0.27,-1.73,4.34,11.67,1.29,1.52,0.15,0.36,0.03,0.96,36.50,75.07,-12.57,R
20.151,255,104,62,255,204,-2.03,-3.51,8.16,0.99,0.31,0.77,-5.09,0.49,7.80,0.79,0.08,0.39,-4.48,2.73,9.78,0.69,-0.18,0.15,-1.78,2.64,10.28,0.35,0.25,0.13,-0.90,4.30,9.83,0.24,0.82,0.30,0.42,0.05,0.99,30.33,46.87,-9.58,R
20.203,255,111,63,255,207,-2.06,-3.73,10.90,1.31,-0.53,0.21,-5.77,0.30,8.96,0.40,-0.68,0.41,-2.49,2.50,9.35,0.47,-0.36,0.30,-1.70,1.25,8.98,0.46,0.31,0.27,-1.13,3.76,7.54,0.68,0.59,0.37,0.28,0.05,0.91,29.11,38.51,-6.47,R
20.251,255,121,65,255,208,-1.56,-3.60,8.35,1.09,-0.23,0.10,-5.01,0.79,7.98,0.49,-0.57,0.23,-3.56,3.75,9.25,0.31,-0.59,0.17,-2.05,3.07,11.11,0.12,0.09,0.11,-1.73,4.49,11.91,0.14,0.32,0.15,0.57,-0.02,0.94,15.26,11.17,-4.39,R
20.305,255,128,66,255,211,-1.78,-2.02,9.64,0.09,-1.02,-0.29,-4.34,1.03,9.71,0.37,-0.07,0.39,-3.58,2.49,9.10,0.24,0.13,0.21,-1.90,13.77,18.39,-0.33,0.18,0.21,-2.62,4.40,13.49,-0.08,-0.37,0.55,0.30,0.01,1.08,19.04,32.41,0.98,R
20.356,255,136,67,255,218,-1.22,-1.81,9.59,0.48,-0.19,-0.02,-4.65,1.24,9.63,0.10,-0.72,0.01,-2.34,3.32,6.96,0.12,-0.36,0.04,-1.33,2.83,8.14,-0.03,-0.08,-0.01,-1.06,4.37,8.77,0.22,-0.09,0.03,0.39,0.06,0.97,-9.34,6.59,-0.73,R
20.405,255,141,67,255,220,-1.05,-2.67,9.42,0.04,0.17,0.06,-4.63,0.74,8.24,0.29,0.07,-0.04,-2.69,3.46,10.29,-0.28,-0.25,0.02,-2.38,1.89,9.85,-0.34,0.26,0.09,-1.40,4.66,9.79,-0.31,-0.09,0.07,0.44,-0.03,0.82,17.52,3.91,-5.62,R
20.456,255,145,68,255,223,-1.36,-2.92,9.72,-0.47,-0.15,-0.25,-4.85,2.47,10.02,-0.22,-0.17,-0.21,-2.44,3.23,8.61,-0.42,-0.26,-0.10,-1.79,1.75,9.20,-0.41,0.01,-0.16,-1.04,3.48,9.25,-0.54,-0.01,-0.05,0.42,-0.00,0.92,-8.85,-12.02,4.46,R
20.51,255,147,69,255,225,-1.09,-3.28,9.38,-0.16,0.08,-0.36,-4.06,0.05,9.29,-0.13,-0.34,0.06,-2.27,2.28,9.54,-0.22,-0.18,0.00,-1.58,1.89,9.81,-0.10,0.02,-0.01,-0.88,3.48,9.40,0.10,-0.01,0.05,0.35,0.00,1.01,-0.18,1.65,-0.98,R
20.563,255,147,68,255,227,-1.30,-3.07,9.34,0.03,0.16,-0.05,-4.08,1.10,8.83,0.13,0.00,0.06,-2.31,2.69,8.96,-0.25,-0.01,0.09,-1.76,2.07,9.43,-0.11,0.08,0.05,-1.10,3.61,9.33,0.04,0.02,0.07,0.41,-0.01,0.89,-3.17,2.50,-1.04,R
20.613,255,148,68,255,226,-1.20,-3.56,9.33,-0.15,0.07,-0.16,-4.04,1.08,8.90,-0.12,-0.06,0.01,-2.22,2.49,9.14,-0.18,-0.09,0.04,-1.81,2.49,9.79,-0.14,-0.01,0.03,-0.95,3.62,9.17,-0.00,-0.00,0.06,0.41,0.00,0.94,-9.46,2.01,2.50,R
20.662,255,145,68,255,226,-1.13,-3.34,9.40,-0.08,0.02,-0.09,-3.94,0.88,9.13,-0.07,0.03,0.03,-2.15,2.69,9.08,-0.01,-0.00,0.02,-1.78,2.44,9.85,0.01,0.02,0.01,-0.83,3.57,9.05,0.06,0.02,0.03,0.40,0.02,0.93,-1.34,-0.73,0.67,R
20.715,255,146,69,255,226,-1.22,-3.40,9.38,-0.07,0.04,-0.06,-3.98,1.02,9.05,-0.03,0.04,0.01,-2.15,2.53,9.36,-0.14,0.00,0.02,-1.57,1.09,9.53,0.12,0.01,-0.02,-0.95,3.88,9.36,-0.00,0.01,0.02,0.40,0.01,0.93,-0.85,-0.55,0.79,R
20.763,255,145,69,255,225,-1.19,-3.22,9.41,0.00,0.02,-0.01,-3.99,0.94,9.01,-0.01,0.08,0.02,-2.19,2.49,9.24,-0.10,0.05,0.03,-1.66,1.57,9.53,-0.02,0.03,0.02,-0.94,3.57,9.26,0.04,0.02,0.01,0.40,0.02,0.93,-2.50,0.67,1.04,R
20.813,255,146,68,255,225,-1.13,-3.39,9.28,-0.03,0.02,-0.02,-3.97,0.83,8.98,-0.02,0.08,0.01,-2.18,2.52,9.16,-0.11,0.03,0.02,-1.74,1.60,9.52,-0.03,0.03,0.01,-0.90,3.61,9.29,0.01,0.02,0.00,0.40,0.02,0.92,-1.16,-0.55,0.79,R
20.868,255,145,68,255,226,-1.17,-3.45,9.32,-0.01,0.02,-0.01,-3.93,1.04,8.94,0.01,0.05,0.01,-2.19,2.35,9.21,-0.09,0.03,0.02,-1.70,1.59,9.57,-0.02,0.03,0.01,-0.98,3.67,9.29,0.03,0.01,0.00,0.41,0.02,0.93,-1.46,0.67,0.37,R
20.917,255,144,68,255,227,-1.22,-3.35,9.36,-0.01,0.02,-0.01,-3.95,0.83,8.93,-0.04,0.08,0.01,-2.26,2.41,9.19,-0.10,0.02,0.03,-1.49,1.25,9.51,0.23,0.00,-0.03,-1.03,3.66,9.24,-0.03,0.03,0.01,0.41,0.02,0.92,-1.04,0.18,0.31,R
20.972,255,144,68,255,226,-1.24,-3.31,9.34,-0.02,0.02,-0.01,-4.05,0.97,8.96,-0.01,0.04,0.00,-2.21,2.40,9.23,-0.08,0.02,0.01,-1.68,1.58,9.52,-0.02,0.02,0.00,-0.97,3.63,9.30,0.01,0.03,-0.01,0.41,0.02,0.92,-0.98,0.24,0.37,R
21.024,255,144,68,255,227,-1.21,-3.32,9.32,-0.02,0.02,-0.03,-3.85,0.85,8.91,-0.06,0.06,0.01,-2.12,2.39,9.18,-0.07,0.02,0.02,-1.70,1.67,9.57,-0.04,0.01,0.04,-0.91,3.56,9.32,0.01,-0.01,0.00,0.41,0.02,0.94,-1.16,-0.61,-0.37,R
21.068,255,141,68,255,227,-1.21,-3.39,9.36,-0.03,0.05,-0.07,-4.10,0.85,9.00,-0.04,0.06,0.02,-2.21,2.31,9.33,-0.05,0.03,0.01,-1.79,1.62,9.57,0.00,0.03,0.01,-0.91,3.64,9.30,0.03,0.02,-0.01,0.40,0.02,0.91,0.43,0.55,-0.31,R
21.124,255,141,68,255,227,-1.28,-3.37,9.31,-0.02,0.03,-0.03,-4.07,0.88,8.90,-0.01,0.04,0.00,-2.24,2.33,9.25,-0.08,0.01,0.01,-1.61,0.91,9.41,0.16,0.01,-0.03,-0.95,3.71,9.22,0.01,0.03,-0.00,0.40,0.03,0.93,-1.04,-0.06,0.61,R
21.174,255,142,68,255,228,-1.27,-3.36,9.39,-0.01,0.03,-0.02,-4.07,0.91,8.96,-0.03,0.04,0.01,-2.20,2.30,9.22,-0.07,0.02,0.01,-1.70,1.60,9.54,0.00,0.04,-0.00,-0.89,3.70,9.26,0.03,0.02,-0.01,0.41,0.03,0.93,-0.24,0.12,-0.06,R
21.229,255,142,68,255,228,-1.27,-3.46,9.30,-0.01,0.04,-0.01,-4.08,0.79,8.99,-0.01,0.05,0.01,-2.25,2.29,9.26,-0.07,0.02,0.01,-1.82,1.69,9.54,-0.01,0.03,-0.00,-0.98,3.60,9.29,0.01,0.02,-0.00,0.41,0.02,0.93,-0.24,-0.18,0.18,R
21.279,255,142,68,255,226,-1.20,-3.43,9.27,0.00,0.02,-0.00,-4.06,0.87,8.90,0.01,0.04,0.01,-2.28,2.33,9.27,-0.05,0.02,0.02,-1.80,1.58,9.49,-0.01,0.02,0.01,-0.96,3.71,9.26,0.01,0.01,0.00,0.41,0.03,0.92,-1.28,0.79,0.06,R
21.327,255,142,68,255,226,-1.18,-3.37,9.30,-0.03,0.05,-0.03,-4.07,0.93,9.04,-0.05,0.07,0.00,-2.18,2.19,9.29,-0.05,0.04,0.01,-1.82,1.64,9.56,0.00,0.03,-0.00,-0.90,3.59,9.30,0.03,0.02,-0.01,0.40,0.03,0.93,-0.85,-0.31,0.06,R
21.38,255,141,68,255,227,-1.28,-3.43,9.30,-0.01,0.06,-0.03,-4.18,0.92,8.84,0.01,0.06,0.01,-2.23,2.21,9.26,-0.04,0.02,0.01,-1.77,1.62,9.58,-0.03,0.02,-0.00,-0.97,3.70,9.34,0.00,0.02,-0.01,0.41,0.03,0.92,-0.24,0.49,0.18,R
21.427,255,140,68,255,226,-1.25,-3.38,9.30,0.01,0.02,-0.00,-4.11,0.84,8.92,-0.01,0.04,0.02,-2.26,2.27,9.29,-0.04,0.02,0.02,-1.78,1.66,9.53,-0.01,0.04,0.02,-1.02,3.72,9.29,0.04,0.03,0.01,0.40,0.03,0.92,0.55,0.67,-0.06,R
21.48,255,140,68,255,226,-1.27,-3.37,9.28,0.01,0.01,0.01,-4.16,0.87,8.88,0.00,0.03,0.01,-2.31,2.24,9.29,-0.06,0.00,0.01,-1.76,1.68,9.55,-0.02,0.01,0.00,-1.02,3.65,9.24,0.00,0.02,-0.01,0.41,0.03,0.93,0.79,0.24,0.12,R
21.53,255,141,68,255,225,-1.23,-3.39,9.31,0.01,0.01,0.01,-4.12,0.85,8.85,0.02,0.04,0.01,-2.34,2.33,9.23,-0.03,0.01,0.01,-1.78,1.70,9.50,-0.01,0.01,0.01,-1.00,3.71,9.29,0.02,0.02,0.01,0.41,0.03,0.92,0.67,1.04,-0.18,R
21.579,255,140,68,255,226,-1.24,-3.37,9.27,-0.01,0.01,0.02,-4.09,0.94,8.89,-0.00,0.03,0.01,-2.31,2.19,9.30,-0.04,0.01,0.02,-1.79,1.66,9.54,-0.01,0.02,0.01,-0.94,3.72,9.30,0.01,0.01,-0.00,0.41,0.03,0.92,0.73,0.00,0.00,R
21.628,255,139,68,255,226,-1.17,-3.47,9.28,-0.01,0.01,-0.03,-4.03,0.90,8.77,-0.01,0.04,0.01,-2.31,2.23,9.18,-0.04,0.02,0.00,-1.79,1.68,9.59,-0.01,0.01,0.00,-0.92,3.73,9.32,0.01,0.02,-0.01,0.41,0.03,0.91,-0.12,0.37,0.24,R
21.685,255,141,68,255,225,-1.26,-3.35,9.24,-0.00,0.01,-0.01,-4.12,0.80,8.89,-0.04,0.02,0.01,-2.29,2.23,9.25,-0.04,0.01,0.00,-1.87,1.67,9.51,-0.01,0.02,-0.00,-0.95,3.73,9.28,0.01,0.02,-0.01,0.40,0.04,0.92,0.37,-0.18,0.24,R
21.734,255,140,69,255,227,-1.19,-3.47,9.25,0.00,0.01,-0.01,-4.14,1.01,8.88,-0.01,0.01,0.00,-2.30,2.23,9.24,-0.06,0.01,0.00,-1.83,1.68,9.54,-0.02,0.01,0.00,-0.93,3.73,9.28,-0.00,0.01,-0.01,0.41,0.03,0.92,0.85,-0.49,0.24,R
21.78,255,140,68,255,230,-1.10,-3.54,9.34,-0.04,0.05,0.01,-4.14,0.82,8.91,-0.01,0.03,0.00,-2.36,2.20,9.26,-0.05,0.00,0.00,-1.80,1.68,9.50,-0.01,0.02,0.00,-0.97,3.74,9.25,0.00,0.02,-0.01,0.41,0.03,0.92,0.67,0.24,0.12,R
21.833,255,139,69,255,227,-1.16,-3.41,9.30,-0.00,0.01,-0.01,-4.12,0.84,8.92,-0.00,0.02,0.00,-2.25,2.19,9.26,-0.04,0.01,0.01,-1.74,1.61,9.56,-0.01,0.01,0.00,-0.94,3.71,9.26,0.01,0.02,-0.01,0.40,0.03,0.92,0.24,0.43,0.31,R
21.887,255,140,68,255,228,-1.24,-3.41,9.33,-0.00,0.02,-0.01,-4.12,0.93,8.91,-0.02,0.02,0.00,-2.27,2.24,9.26,-0.04,-0.00,-0.00,-1.86,1.65,9.50,-0.01,0.01,-0.00,-0.90,3.66,9.24,-0.01,0.02,-0.01,0.41,0.03,0.92,0.61,-0.31,0.06,R
21.936,255,140,68,255,228,-1.31,-3.43,9.37,-0.01,0.01,-0.02,-4.16,0.91,8.96,-0.03,0.02,-0.00,-2.26,2.22,9.28,-0.02,0.01,-0.00,-1.78,1.61,9.54,-0.01,0.02,-0.00,-0.94,3.67,9.32,-0.00,0.02,-0.01,0.41,0.03,0.92,-0.24,-0.31,0.37,R
21.992,255,140,68,255,229,-1.22,-3.45,9.27,-0.00,0.02,-0.02,-4.08,0.80,8.93,-0.02,0.02,-0.01,-2.31,2.23,9.30,-0.04,0.00,-0.00,-1.82,1.61,9.55,-0.01,0.01,-0.00,-0.94,3.70,9.31,-0.00,0.02,-0.01,0.41,0.03,0.92,0.67,-0.12,0.00,R
22.042,255,140,68,255,228,-1.28,-3.45,9.30,-0.01,0.02,-0.01,-4.13,0.90,8.90,-0.00,0.02,-0.00,-2.28,2.22,9.20,-0.01,0.00,-0.01,-1.75,1.68,9.55,-0.01,0.01,-0.00,-0.95,3.65,9.22,-0.01,0.01,-0.02,0.41,0.03,0.93,0.24,-0.31,-0.06,R
22.095,255,140,68,255,229,-1.20,-3.49,9.31,-0.01,0.02,-0.01,-4.10,0.84,8.91,-0.03,0.02,-0.01,-2.34,2.20,9.26,-0.03,0.00,-0.00,-1.81,1.65,9.54,-0.00,0.01,-0.00,-0.92,3.67,9.22,0.00,0.01,-0.01,0.40,0.03,0.92,0.55,-0.43,-0.06,R
22.141,255,140,69,255,229,-1.26,-3.39,9.25,-0.01,0.02,-0.01,-4.15,0.89,8.88,-0.01,0.03,-0.00,-2.29,2.29,9.25,-0.03,0.00,0.00,-1.79,1.67,9.49,-0.00,0.01,-0.00,-1.00,3.63,9.21,0.00,0.01,-0.00,0.41,0.03,0.92,0.18,-0.12,0.06,R
22.195,255,139,68,255,229,-1.22,-3.47,9.34,0.00,0.01,-0.01,-4.18,0.71,8.95,0.00,0.02,0.01,-2.35,2.17,9.25,-0.03,0.01,0.01,-1.77,1.71,9.56,-0.00,0.02,0.01,-0.94,3.62,9.18,0.02,0.02,-0.01,0.40,0.03,0.93,0.85,-0.18,-0.06,R
22.246,255,138,68,255,227,-1.31,-3.43,9.30,-0.00,0.01,0.01,-4.53,0.81,9.03,0.03,0.05,0.02,-2.30,2.15,9.23,-0.03,0.01,0.00,-1.84,1.69,9.57,-0.01,0.01,0.01,-0.91,3.64,9.13,0.01,0.02,0.00,0.41,0.03,0.92,-0.18,0.06,0.18,R
22.294,255,139,68,255,228,-1.08,-3.15,8.82,-0.04,0.01,0.00,-4.05,0.81,8.82,0.02,0.04,0.01,-2.23,2.15,9.22,-0.03,0.01,0.01,-1.81,1.68,9.55,-0.00,0.01,0.01,-0.97,3.76,9.37,0.03,0.02,-0.00,0.41,0.04,0.92,0.55,0.55,-0.12,R
22.345,255,138,69,255,228,-1.26,-3.45,9.25,-0.00,0.01,0.00,-4.16,0.91,8.88,0.02,0.05,0.01,-2.27,2.31,9.22,-0.03,0.00,0.01,-1.78,1.61,9.52,-0.01,0.01,0.00,-0.99,3.70,9.33,0.00,0.01,-0.01,0.41,0.04,0.92,0.24,-0.24,0.43,R
22.396,255,137,68,255,228,-1.26,-3.50,9.23,0.00,0.01,0.00,-4.11,0.85,8.75,0.01,0.03,0.01,-2.25,2.25,9.20,-0.02,0.01,0.01,-1.86,1.68,9.60,0.00,0.01,0.00,-0.96,3.85,9.41,0.02,0.02,0.01,0.40,0.03,0.91,0.85,0.79,0.18,R
22.454,255,136,68,255,228,-1.24,-3.49,9.16,-0.01,0.01,-0.01,-4.02,0.97,8.78,0.02,0.04,0.01,-2.25,2.27,9.23,-0.04,0.01,0.01,-1.82,1.72,9.53,-0.00,0.01,0.01,-0.98,3.70,9.26,0.02,0.01,-0.01,0.40,0.04,0.92,0.37,0.31,0.18,R
22.499,255,137,69,255,228,-1.28,-3.44,9.34,-0.01,0.00,0.01,-4.17,0.99,8.85,0.01,0.06,0.02,-2.28,2.22,9.17,-0.03,0.02,0.02,-1.78,1.68,9.46,-0.00,0.02,0.01,-0.98,3.71,9.23,0.03,0.02,-0.00,0.41,0.04,0.92,0.73,0.67,0.55,R
22.552,255,137,68,255,228,-1.24,-3.46,9.31,-0.01,0.00,-0.01,-4.19,0.83,8.88,-0.01,0.03,0.01,-2.23,2.18,9.21,-0.02,0.01,0.01,-1.77,1.59,9.51,-0.00,0.02,0.01,-0.87,3.77,9.25,0.01,0.02,-0.00,0.41,0.04,0.93,-0.67,-0.12,0.61,R
22.603,255,136,68,255,227,-1.28,-3.43,9.28,0.00,0.01,0.00,-4.16,0.98,8.86,0.00,0.07,-0.00,-2.33,2.20,9.25,-0.03,0.02,0.01,-1.81,1.62,9.52,-0.00,0.02,0.01,-0.93,3.73,9.22,0.01,0.02,-0.00,0.41,0.04,0.92,0.06,0.49,0.43,R
22.658,255,136,68,255,227,-1.24,-3.46,9.25,0.00,0.01,-0.01,-4.10,0.88,8.80,-0.02,0.03,0.00,-2.38,2.26,9.22,-0.03,-0.00,0.01,-1.83,1.61,9.60,-0.01,0.01,0.00,-0.97,3.73,9.27,0.01,0.01,-0.01,0.41,0.04,0.93,0.31,0.00,0.61,R
22.702,255,135,67,255,227,-1.25,-3.43,9.27,0.00,0.02,0.01,-4.21,0.96,9.21,0.02,0.06,0.01,-2.28,2.22,9.23,-0.04,0.01,0.01,-1.77,1.67,9.50,-0.01,0.02,0.01,-0.91,3.74,9.23,0.02,0.01,-0.01,0.41,0.04,0.92,0.12,0.24,0.18,R
22.755,255,136,68,255,227,-1.31,-3.45,9.26,-0.01,0.02,-0.01,-4.21,0.97,8.85,0.02,0.03,0.01,-2.33,2.23,9.28,-0.03,0.01,0.01,-1.86,1.68,9.52,-0.01,0.02,0.01,-1.53,3.25,8.45,-0.06,0.04,-0.01,0.41,0.04,0.93,0.00,0.49,0.37,R
22.808,255,135,68,255,228,-1.30,-3.45,9.27,0.00,0.01,0.00,-4.21,0.86,8.81,-0.00,0.03,0.01,-2.36,2.22,9.24,-0.01,0.02,0.00,-1.78,1.70,9.52,-0.01,0.02,-0.00,-0.90,3.67,9.24,0.01,0.02,-0.01,0.41,0.04,0.92,-0.18,0.00,0.18,R
22.861,255,136,67,255,227,-1.17,-3.53,9.31,-0.01,0.02,-0.01,-4.14,0.91,9.13,-0.00,0.07,-0.00,-2.32,2.19,9.20,-0.02,0.02,0.01,-1.82,1.61,9.50,0.00,0.02,0.01,-0.90,3.79,9.22,0.01,0.01,-0.01,0.41,0.04,0.93,-0.31,-0.06,0.12,R
22.911,255,135,67,255,227,-1.24,-3.49,9.26,0.00,0.03,-0.01,-4.23,0.99,8.80,0.02,0.03,0.01,-2.40,2.22,9.24,-0.03,0.01,0.01,-1.81,1.63,9.52,-0.01,0.02,-0.00,-0.98,3.66,9.17,0.01,0.02,-0.01,0.41,0.04,0.92,0.24,0.06,0.06,R
22.962,255,135,67,255,227,-1.23,-3.44,9.30,0.00,0.02,-0.00,-4.25,0.98,8.83,-0.02,0.03,0.00,-2.33,2.20,9.24,-0.05,0.00,0.00,-1.82,1.72,9.58,-0.00,0.01,0.00,-0.93,3.71,9.17,-0.01,0.02,-0.01,0.41,0.04,0.92,0.98,-0.24,-0.18,R
23.013,255,135,68,255,228,-1.30,-3.51,9.30,0.01,0.02,-0.00,-4.28,0.97,8.90,0.01,0.03,0.00,-2.29,2.21,9.21,-0.03,0.01,0.00,-1.80,1.72,9.51,-0.01,0.01,-0.00,-1.01,3.71,9.26,-0.00,0.02,-0.01,0.41,0.04,0.92,0.79,-0.24,-0.18,R
23.065,255,133,68,255,228,-1.25,-3.45,9.29,-0.00,0.01,-0.01,-4.24,0.92,8.83,0.03,0.04,0.01,-2.31,2.26,9.22,-0.03,0.01,0.01,-1.85,1.70,9.47,0.01,0.02,0.00,-0.94,3.79,9.28,0.01,0.02,-0.01,0.41,0.04,0.92,0.18,0.61,-0.18,R
23.12,255,130,67,255,227,-1.21,-3.47,9.28,0.01,0.01,0.00,-4.23,0.96,8.83,0.01,0.02,0.01,-2.31,2.17,9.26,-0.03,0.01,0.00,-1.80,1.55,9.37,0.01,0.02,-0.00,-0.94,3.81,9.37,-0.01,0.01,-0.01,0.41,0.04,0.92,1.10,-0.12,0.00,R
23.165,255,134,67,255,228,-1.24,-3.34,9.18,0.01,0.01,0.01,-4.19,0.93,8.83,0.04,0.03,0.01,-2.38,2.27,9.31,-0.03,0.00,0.01,-1.87,1.70,9.64,-0.01,0.02,0.00,-0.91,3.70,9.22,0.01,0.02,-0.01,0.42,0.03,0.92,0.18,0.43,0.06,R
23.216,255,133,67,255,229,-1.24,-3.43,9.24,0.00,0.02,-0.01,-4.19,1.07,8.74,-0.01,0.03,0.00,-2.40,2.27,9.29,-0.04,-0.01,0.00,-1.83,1.60,9.53,-0.01,0.01,-0.00,-0.91,3.83,9.28,0.01,0.02,-0.01,0.42,0.04,0.92,1.04,0.43,-0.06,R
23.267,255,132,67,255,227,-1.23,-3.48,9.19,0.01,0.03,-0.01,-4.33,1.00,8.82,-0.01,0.04,0.00,-2.37,2.18,9.23,-0.03,0.01,0.00,-1.84,1.67,9.51,-0.01,0.02,-0.00,-0.96,3.74,9.27,-0.00,0.01,-0.01,0.41,0.04,0.92,0.18,-0.06,0.06,R
23.32,255,132,68,255,225,-1.26,-3.49,9.34,-0.00,0.02,-0.01,-4.29,0.90,8.87,0.02,0.04,0.00,-2.37,2.20,9.19,-0.04,0.01,0.01,-1.80,1.70,9.51,-0.00,0.02,0.00,-0.92,3.71,9.13,0.02,0.03,0.00,0.41,0.04,0.93,-0.12,0.49,0.43,R
23.369,255,132,68,255,228,-1.28,-3.49,9.23,0.01,0.01,-0.00,-4.27,1.07,8.83,-0.01,0.02,0.00,-2.35,2.22,9.24,-0.03,0.01,-0.00,-1.81,1.60,9.59,-0.00,0.01,0.00,-0.93,3.77,9.20,0.00,0.02,-0.01,0.41,0.04,0.92,1.16,-0.37,0.24,R
23.42,255,132,67,255,226,-1.27,-3.46,9.30,-0.00,0.01,-0.01,-4.30,1.11,8.85,0.00,0.03,0.00,-2.33,2.21,9.25,-0.03,0.01,0.01,-1.82,1.59,9.50,-0.00,0.02,-0.00,-0.91,3.77,9.25,0.01,0.02,-0.01,0.41,0.04,0.92,0.06,0.31,0.06,R
23.466,255,131,68,255,228,-1.31,-3.46,9.26,0.00,0.02,-0.01,-4.28,1.06,8.80,-0.00,0.02,0.00,-2.39,2.30,9.25,-0.04,0.01,-0.00,-1.84,1.68,9.54,-0.01,0.02,-0.00,-0.95,3.78,9.23,0.01,0.02,-0.01,0.41,0.04,0.92,1.16,0.00,-0.12,R
23.524,255,131,67,255,225,-1.29,-3.45,9.26,0.00,0.01,0.00,-4.27,1.01,8.80,-0.01,0.03,0.00,-2.45,2.28,9.26,-0.03,0.00,0.00,-1.86,1.70,9.49,-0.01,0.02,-0.00,-0.88,3.80,9.26,0.00,0.02,-0.00,0.41,0.04,0.92,0.43,-0.06,0.12,R
23.572,255,133,67,255,227,-1.25,-3.44,9.26,-0.00,0.02,-0.00,-4.26,0.99,8.70,-0.02,0.03,-0.00,-2.33,2.18,9.20,-0.03,0.00,0.00,-1.81,1.63,9.50,-0.00,0.02,0.00,-0.91,3.77,9.19,0.01,0.02,-0.01,0.41,0.04,0.92,1.16,0.00,-0.31,R
23.622,255,132,67,255,226,-1.28,-3.39,9.31,0.01,0.01,0.00,-4.32,1.02,8.81,0.02,0.02,0.01,-2.32,2.20,9.19,-0.01,0.01,0.00,-1.80,1.65,9.47,0.00,0.01,0.01,-0.89,3.77,9.20,0.01,0.01,-0.00,0.41,0.04,0.92,0.37,0.31,-0.06,R
23.673,255,133,67,255,228,-1.34,-3.50,9.34,0.00,0.01,0.01,-4.30,1.02,8.79,-0.02,0.02,0.00,-2.31,2.26,9.25,-0.02,-0.00,0.01,-1.83,1.70,9.47,0.00,0.02,0.00,-0.85,3.79,9.21,0.01,0.01,-0.01,0.41,0.04,0.92,0.73,-0.06,0.31,R
23.725,255,131,68,255,228,-1.34,-3.47,9.25,-0.00,0.01,0.00,-4.29,1.10,8.79,0.01,0.02,0.00,-2.36,2.25,9.23,-0.03,0.01,0.00,-1.83,1.70,9.46,-0.01,0.01,0.00,-0.86,3.76,9.18,0.00,0.02,-0.01,0.41,0.04,0.92,0.00,-0.06,0.24,R
23.775,255,131,68,255,226,-1.28,-3.49,9.28,0.01,0.02,-0.00,-4.26,0.93,8.85,-0.00,0.03,0.01,-2.38,2.27,9.25,-0.03,0.02,0.01,-1.86,1.67,9.44,0.00,0.02,0.01,-0.93,3.75,9.25,0.02,0.02,-0.01,0.41,0.04,0.92,1.10,0.43,0.18,R
23.827,255,132,68,255,228,-1.30,-3.51,9.36,0.00,0.00,-0.01,-4.30,1.04,8.78,-0.01,0.02,0.00,-2.38,2.20,9.25,-0.04,-0.00,0.00,-1.83,1.69,9.50,-0.01,0.02,0.00,-0.89,3.73,9.23,0.01,0.02,-0.00,0.41,0.04,0.93,0.18,-0.12,0.49,R
23.883,255,132,67,255,226,-1.26,-3.43,9.21,0.00,0.01,0.00,-4.29,0.97,8.83,-0.02,0.04,0.00,-2.37,2.22,9.27,-0.02,0.01,0.00,-1.81,1.66,9.52,-0.00,0.01,0.01,-0.90,3.81,9.26,0.00,0.02,-0.01,0.41,0.04,0.92,1.04,0.06,-0.12,R
23.934,255,131,67,255,227,-1.31,-3.44,9.28,0.00,0.01,0.00,-4.28,0.99,8.79,0.00,0.02,0.01,-2.36,2.15,9.20,-0.02,0.01,0.01,-1.90,1.69,9.50,0.00,0.02,0.00,-0.91,3.78,9.14,0.02,0.02,0.00,0.41,0.04,0.92,0.43,0.31,0.24,R
23.984,255,132,67,255,226,-1.32,-3.41,9.29,0.01,0.01,0.00,-4.29,1.08,8.87,-0.01,0.01,0.00,-2.32,2.15,9.24,-0.04,0.00,0.00,-1.83,1.65,9.54,-0.00,0.01,-0.01,-0.89,3.81,9.21,0.00,0.01,-0.01,0.42,0.05,0.93,0.92,-0.18,0.06,R
24.028,255,136,68,255,226,-1.38,-3.43,9.28,0.00,0.02,-0.01,-4.29,1.01,8.85,-0.02,0.03,-0.00,-2.38,2.26,9.25,-0.03,0.01,0.00,-1.82,1.65,9.51,-0.01,0.02,0.00,-0.95,3.72,9.21,0.01,0.01,-0.01,0.41,0.04,0.92,0.43,-0.24,0.06,R
24.079,255,131,67,255,226,-1.33,-3.48,9.28,0.00,0.01,-0.01,-4.28,1.11,8.79,0.01,0.02,0.01,-2.32,2.26,9.24,-0.03,0.00,0.01,-1.88,1.70,9.50,-0.01,0.01,0.00,-0.95,3.82,9.23,0.01,0.01,-0.01,0.42,0.04,0.92,0.61,0.37,0.06,R
24.133,255,133,67,255,241,-1.36,-3.29,9.41,0.00,0.01,-0.00,-4.31,1.06,8.78,-0.01,0.03,-0.01,-2.36,2.23,9.21,-0.03,0.01,0.00,-1.83,1.68,9.48,-0.01,0.01,-0.00,-0.91,3.77,9.25,0.00,0.02,-0.01,0.41,0.04,0.92,0.73,-0.12,-0.06,R
24.181,255,133,67,255,226,-1.32,-3.41,9.30,0.00,0.01,-0.01,-4.26,1.04,8.82,-0.00,0.02,0.00,-2.30,2.25,9.24,-0.03,0.01,0.00,-1.81,1.70,9.50,-0.00,0.02,-0.00,-0.95,3.81,9.25,0.01,0.02,-0.01,0.42,0.04,0.92,0.49,0.06,0.18,R
24.237,255,131,67,255,225,-1.15,-3.35,9.14,-0.01,0.00,-0.01,-4.25,1.10,8.78,0.01,0.03,-0.00,-2.35,2.22,9.19,-0.02,0.01,0.01,-1.89,1.60,9.52,-0.01,0.01,0.00,-0.96,3.88,9.23,0.01,0.02,-0.01,0.41,0.04,0.92,0.67,-0.24,-0.18,R
24.282,255,131,67,255,228,-1.23,-3.50,9.28,0.01,0.01,0.01,-4.24,1.05,8.85,-0.01,0.03,0.00,-2.38,2.23,9.27,-0.03,0.00,0.00,-1.82,1.70,9.48,-0.00,0.01,0.00,-0.90,3.81,9.18,0.01,0.02,-0.00,0.41,0.04,0.92,0.67,0.18,-0.18,R
24.337,255,131,66,255,226,-1.30,-3.46,9.31,-0.00,0.01,-0.01,-4.33,1.04,8.82,0.05,0.03,-0.01,-2.35,2.23,9.21,-0.03,0.01,0.00,-1.84,1.69,9.50,-0.00,0.01,0.00,-0.97,3.84,9.27,0.00,0.01,-0.01,0.42,0.04,0.92,0.49,-0.06,0.06,R
24.386,255,131,67,255,226,-1.26,-3.51,9.25,0.01,0.01,0.01,-4.26,1.06,8.80,0.01,0.02,0.01,-2.39,2.21,9.23,-0.03,-0.00,0.01,-1.87,1.68,9.66,0.00,0.02,0.01,-0.87,3.73,9.04,0.01,0.01,-0.01,0.42,0.04,0.92,0.92,0.37,-0.43,R
24.438,255,131,68,255,227,-1.35,-3.47,9.43,-0.00,0.02,0.01,-4.29,0.99,8.77,-0.01,0.02,-0.00,-2.42,2.18,9.22,-0.02,0.00,-0.00,-1.80,1.67,9.52,-0.01,0.01,-0.00,-0.92,3.80,9.20,0.01,0.02,-0.01,0.42,0.04,0.92,0.79,-0.24,-0.06,R
24.487,255,132,67,255,228,-1.27,-3.49,9.24,-0.00,0.01,0.00,-4.28,1.13,8.77,0.00,0.02,0.00,-2.37,2.31,9.20,-0.02,0.01,0.00,-1.81,1.69,9.52,-0.01,0.01,0.00,-0.92,3.85,9.24,0.01,0.01,-0.00,0.41,0.04,0.92,0.55,-0.06,0.00,R
24.541,255,131,67,255,227,-1.27,-3.47,9.31,-0.00,0.01,0.00,-4.31,1.28,8.84,0.01,0.03,-0.00,-2.37,2.32,9.24,-0.04,0.01,0.00,-1.86,1.68,9.56,-0.01,0.01,0.01,-0.89,3.76,9.18,0.01,0.02,-0.01,0.41,0.04,0.92,0.55,-0.24,0.18,R
24.59,255,131,67,255,225,-1.26,-3.46,9.32,0.00,0.01,0.00,-4.28,1.13,8.83,0.01,0.03,-0.00,-2.38,2.28,9.21,-0.04,0.01,0.01,-1.80,1.75,9.49,-0.01,0.02,-0.01,-0.87,3.81,9.17,0.01,0.02,-0.01,0.42,0.04,0.92,0.61,0.12,0.00,R
24.644,255,131,67,255,227,-1.37,-3.51,9.30,-0.01,0.01,-0.01,-4.27,1.02,8.87,-0.03,0.02,-0.00,-2.41,2.24,9.24,-0.05,0.01,0.00,-1.80,1.67,9.53,-0.01,0.01,0.00,-0.88,3.75,9.01,0.01,0.02,-0.01,0.41,0.04,0.93,0.67,-0.43,0.00,R
24.693,255,132,67,255,227,-1.25,-3.47,9.28,0.01,0.01,0.00,-4.31,1.04,8.87,0.02,0.04,0.01,-2.37,2.26,9.15,-0.04,0.01,0.01,-1.92,1.66,9.56,-0.01,0.02,0.01,-0.94,3.85,9.23,0.02,0.01,-0.01,0.42,0.04,0.92,0.43,0.12,0.00,R
24.745,255,132,67,255,226,-1.31,-3.50,9.29,0.00,0.01,-0.01,-4.24,1.13,8.87,0.00,0.02,-0.00,-2.41,2.25,9.24,-0.02,0.01,0.00,-1.86,1.72,9.49,0.00,0.01,0.00,-0.86,3.77,9.13,0.01,0.02,-0.01,0.41,0.04,0.92,0.73,0.12,-0.06,R
24.793,255,132,67,255,225,-1.36,-3.40,9.36,0.01,0.01,0.00,-4.34,1.13,8.82,0.02,0.02,0.01,-2.45,2.29,9.32,-0.02,0.00,0.00,-1.78,1.71,9.24,-0.01,0.02,0.01,-0.98,3.84,9.28,0.01,0.01,-0.00,0.42,0.04,0.92,0.18,0.06,0.06,R
