Timestamp,Thumb Flex,Pointer Flex,Middle Flex,Ring Flex,Pinky Flex,Thumb Acc. X,Thumb Acc. Y,Thumb Acc. Z,Thumb Gyro X,Thumb Gyro Y,Thumb Gyro Z,Pointer Acc. X,Pointer Acc. Y,Pointer Acc. Z,Pointer Gyro X,Pointer Gyro Y,Pointer Gyro Z,Middle Acc. X,Middle Acc. Y,Middle Acc. Z,Middle Gyro X,Middle Gyro Y,Middle Gyro Z,Ring Acc. X,Ring Acc. Y,Ring Acc. Z,Ring Gyro X,Ring Gyro Y,Ring Gyro Z,Pinky Acc. X,Pinky Acc. Y,Pinky Acc. Z,Pinky Gyro X,Pinky Gyro Y,Pinky Gyro Z,Wrist Gyro X,Wrist Gyro Y,Wrist Gyro Z,Wrist Acc. X,Wrist Acc. Y,Wrist Acc. Z,Hand
1.051,135,193,177,255,154,2.45,3.29,6.96,1.46,-0.25,0.42,-1.53,7.08,4.83,0.86,0.24,1.07,-1.79,8.80,1.80,0.67,0.50,1.05,-1.57,8.81,1.50,0.88,0.55,0.73,1.17,8.40,-2.69,1.04,0.57,0.34,0.88,0.24,0.33,15.01,69.46,-1.16,R
1.102,133,193,180,255,153,0.65,2.04,10.52,1.71,-0.56,0.60,-1.95,7.42,4.62,1.11,0.28,1.52,-1.05,9.19,0.58,1.00,0.79,1.57,-0.94,9.39,0.45,1.55,1.00,1.27,0.65,9.12,-2.75,1.99,1.00,0.63,0.85,0.22,0.25,20.81,119.38,-13.18,R
1.153,131,193,178,255,153,2.71,4.93,6.92,1.84,-0.22,0.40,-0.41,7.52,3.82,1.12,0.40,1.18,-0.76,8.83,1.05,0.86,0.62,1.14,-1.01,8.96,0.58,1.13,0.64,0.75,1.33,8.11,-3.75,1.27,0.56,0.22,0.99,0.21,0.18,19.96,84.29,-9.77,R
1.203,129,195,177,255,153,1.62,5.25,8.06,1.27,-0.10,0.40,-0.83,9.88,3.39,0.81,0.35,0.90,-0.17,10.40,-0.01,0.66,0.50,0.87,-0.57,9.95,-0.13,0.83,0.55,0.66,1.35,8.72,-3.82,0.94,0.49,0.37,0.96,0.18,0.10,16.24,65.80,-7.75,R
1.255,129,194,178,255,153,2.04,5.54,7.93,0.98,-0.04,0.33,-0.06,8.97,3.01,0.64,0.30,0.68,0.69,9.39,-0.33,0.56,0.47,0.67,0.20,9.35,-1.08,0.80,0.56,0.49,2.19,7.62,-5.05,0.97,0.52,0.17,0.93,0.21,0.07,17.70,54.02,-10.19,R
1.306,126,193,178,255,153,2.47,5.73,7.09,0.98,0.09,0.35,-0.05,9.09,2.53,0.67,0.46,0.55,-0.09,9.66,-0.06,0.46,0.37,0.45,-1.11,9.95,0.45,0.58,0.36,0.22,0.86,9.86,-3.04,0.38,0.23,-0.04,1.04,0.17,0.01,19.35,41.14,-6.53,R
1.357,126,193,177,255,153,2.68,7.56,5.86,-0.46,0.48,0.06,-0.63,9.52,3.43,-0.45,0.28,-0.41,0.19,9.97,-0.01,-0.41,-0.17,-0.51,0.43,9.60,-1.26,-0.51,-0.22,-0.46,2.91,7.23,-6.03,-0.57,-0.15,-0.27,0.98,0.20,0.00,8.97,-35.03,8.67,R
1.408,126,193,178,255,153,1.34,3.29,10.54,0.33,0.03,0.13,-0.71,8.67,3.46,0.36,0.33,0.39,0.82,9.28,-0.52,0.46,0.47,0.50,0.35,9.05,-1.31,0.79,0.60,0.43,1.77,7.68,-4.78,1.12,0.50,0.11,0.93,0.21,0.02,9.34,45.84,-15.56,R
1.46,124,191,178,255,153,2.16,7.45,6.68,0.98,0.07,0.31,-0.20,10.47,2.72,0.54,0.28,0.61,0.54,10.89,-0.87,0.39,0.40,0.50,-0.16,10.67,-1.33,0.38,0.46,0.29,1.99,8.79,-5.02,0.38,0.40,0.06,1.03,0.15,-0.02,13.79,37.66,-6.47,R
1.509,123,190,177,255,153,2.02,5.46,8.33,0.52,0.07,0.31,-0.24,9.16,2.90,0.35,0.21,0.60,1.00,9.57,-0.77,0.34,0.37,0.57,0.79,9.37,-2.09,0.58,0.42,0.47,2.74,7.39,-6.07,0.82,0.41,0.24,0.94,0.16,-0.05,14.47,40.65,-4.46,R
1.561,124,192,177,255,153,2.52,6.44,7.02,1.05,-0.13,0.35,0.30,9.31,2.49,0.61,0.26,0.90,1.37,9.42,-1.05,0.53,0.49,0.83,0.52,9.27,-1.80,0.74,0.56,0.59,2.33,7.52,-5.41,0.91,0.56,0.23,0.99,0.16,-0.10,16.78,62.32,-5.80,R
1.611,124,191,176,255,153,2.40,6.19,7.23,1.01,-0.00,0.40,0.29,9.04,2.50,0.68,0.29,0.95,1.99,9.76,-1.33,0.68,0.51,0.98,2.11,9.25,-3.56,0.99,0.65,0.79,3.99,5.70,-7.84,1.36,0.71,0.40,0.88,0.17,-0.15,17.88,67.02,-7.75,R
1.663,123,190,177,255,152,2.12,6.70,7.11,1.87,-0.35,0.69,1.12,9.35,1.91,1.14,0.30,1.71,2.30,9.77,-1.59,0.92,0.82,1.59,1.21,9.57,-2.44,1.39,0.99,1.26,2.87,7.05,-6.03,1.74,0.98,0.64,0.98,0.14,-0.24,20.26,119.26,-11.41,R
1.714,123,192,177,255,150,3.30,7.39,5.23,1.65,-0.22,0.74,2.42,9.09,1.13,0.87,0.25,1.61,3.52,8.62,-2.10,0.79,0.69,1.49,2.69,8.56,-3.82,1.22,0.82,1.09,4.12,5.44,-7.65,1.64,0.87,0.53,0.89,0.16,-0.32,21.18,101.81,-6.90,R
1.765,122,192,176,255,153,3.51,7.02,4.96,1.99,-0.46,0.86,2.99,9.61,0.92,1.14,0.25,1.95,4.69,8.95,-2.47,1.00,0.83,1.79,3.53,8.20,-4.41,1.53,1.15,1.43,4.26,4.48,-7.40,2.02,1.24,0.69,0.88,0.16,-0.43,22.28,128.42,-12.33,R
1.816,122,191,176,255,152,3.99,8.27,3.09,2.31,-0.36,0.78,3.96,8.56,0.10,1.32,0.34,1.99,5.51,8.72,-2.95,1.11,0.85,1.87,4.25,8.32,-4.72,1.54,1.08,1.45,4.88,4.84,-7.38,1.91,1.12,0.77,0.82,0.16,-0.54,22.40,129.82,-10.62,R
1.867,124,193,178,255,152,4.00,7.84,3.29,2.08,-0.37,1.10,4.99,8.27,-0.34,1.17,0.19,2.20,6.38,7.10,-3.16,1.06,1.00,2.11,5.41,6.53,-5.63,1.56,1.31,1.67,5.56,3.27,-7.77,2.14,1.51,0.77,0.70,0.17,-0.64,28.63,134.09,-12.08,R
1.918,122,190,176,255,152,4.71,8.26,1.55,2.32,-0.45,1.21,5.93,7.85,-0.80,1.24,0.32,2.36,6.82,7.06,-2.87,1.08,1.08,2.11,6.00,6.93,-5.60,1.50,1.38,1.63,6.10,2.86,-7.74,1.96,1.57,0.76,0.66,0.18,-0.73,29.05,136.41,-11.29,R
1.969,123,192,177,255,153,6.00,7.15,-0.11,1.93,-0.54,1.10,6.74,5.96,-0.95,1.00,0.18,2.13,7.47,4.92,-2.60,0.84,0.89,1.95,6.29,5.02,-4.76,1.26,1.09,1.51,6.93,1.08,-7.43,1.65,1.19,0.89,0.60,0.16,-0.78,26.86,118.59,-5.13,R
2.02,123,191,176,255,153,6.21,6.57,-0.48,1.94,-0.49,1.06,7.27,5.42,-1.03,1.06,0.38,2.12,7.95,4.20,-2.44,0.90,1.11,1.85,6.72,4.32,-4.35,1.40,1.38,1.49,7.35,1.00,-6.81,1.86,1.35,0.68,0.51,0.20,-0.83,29.60,123.23,-11.84,R
2.071,125,191,176,255,153,6.60,6.35,-1.81,1.95,-0.72,1.07,7.17,5.06,-0.63,0.94,0.02,2.10,7.61,4.00,-1.58,0.74,0.62,1.94,6.61,3.84,-3.23,1.14,0.88,1.67,6.74,0.27,-4.60,1.50,0.98,0.98,0.47,0.20,-0.89,21.42,116.27,-3.30,R
2.121,126,190,176,255,155,7.41,6.87,-3.60,1.25,-0.52,0.77,9.33,3.49,-2.27,0.41,0.06,1.48,10.16,1.93,-2.72,0.59,0.36,1.24,8.39,1.97,-4.82,0.61,0.62,0.97,7.87,-1.52,-5.93,0.79,0.82,0.38,0.39,0.23,-0.89,20.63,69.15,6.04,R
2.172,126,189,177,255,153,6.68,6.39,-2.41,0.98,-0.33,0.71,8.22,3.50,-1.42,0.42,0.16,1.08,8.75,2.66,-1.71,0.29,0.43,1.01,8.48,2.93,-4.19,0.49,0.56,0.89,8.51,-1.62,-5.84,0.92,0.94,0.20,0.27,0.25,-0.91,17.09,59.14,5.31,R
2.224,126,190,175,255,154,7.21,5.10,-2.85,1.04,-0.60,0.72,9.36,2.66,-1.87,0.20,0.09,1.36,9.39,0.67,-1.94,0.13,0.61,1.00,8.02,0.76,-3.53,0.40,0.82,0.89,7.41,-2.61,-4.19,0.75,0.70,0.22,0.33,0.25,-0.90,16.42,63.96,5.00,R
2.274,128,190,175,255,152,7.77,6.11,-4.74,0.43,-0.05,0.77,9.79,2.55,-2.23,-0.15,0.23,0.85,8.99,1.21,-0.86,-0.06,0.57,0.45,8.12,0.79,-2.95,-0.06,0.51,0.34,7.36,-2.12,-3.17,0.10,0.48,-0.26,0.24,0.26,-0.93,24.11,21.73,11.90,R
2.325,129,191,175,255,156,6.91,5.51,-3.49,0.30,0.28,0.70,13.60,4.73,-2.87,-0.52,0.25,0.72,11.15,1.75,-2.85,-0.18,0.44,0.23,9.45,1.02,-4.14,-0.12,0.65,0.10,8.25,-2.77,-4.51,0.02,0.30,-0.45,0.20,0.32,-0.88,23.56,10.99,7.63,R
2.377,134,188,173,255,156,8.00,5.58,-2.93,0.39,0.94,0.66,9.99,2.02,-3.15,-1.39,4.36,0.75,9.77,1.13,-1.90,-0.50,0.79,-0.34,9.99,1.88,-5.46,-0.16,0.40,-0.71,9.18,-1.10,-6.52,-0.14,-0.28,-1.01,0.26,0.32,-0.94,38.70,-5.13,0.98,R
2.428,134,190,167,255,153,7.86,4.37,-2.11,-0.00,0.84,0.41,8.46,3.05,1.96,-0.35,3.29,-0.09,8.58,1.92,0.24,-0.08,2.99,-1.10,8.78,0.20,-2.91,0.31,3.43,-0.67,8.95,-2.98,-5.58,0.57,1.62,-1.47,0.18,0.36,-0.93,45.72,-22.22,-10.68,R
2.479,136,192,170,255,166,8.78,4.09,-3.47,0.13,1.09,0.38,11.03,0.83,-0.11,-0.07,2.95,0.14,9.12,1.46,-0.27,0.31,1.13,-0.56,9.58,1.38,-3.53,0.29,1.36,-0.86,8.11,-0.45,-3.17,0.40,0.63,-1.28,0.32,0.38,-0.90,48.65,-29.24,-17.40,R
2.53,136,196,175,255,172,7.41,5.30,-1.45,-0.03,1.22,0.24,9.86,1.99,5.62,-0.04,2.80,-0.10,9.67,3.69,1.65,0.25,1.95,-0.78,9.05,2.61,-0.19,0.35,1.47,-0.88,8.81,-0.92,-3.08,0.17,-0.46,-1.10,0.22,0.42,-0.88,52.37,-31.19,-17.09,R
2.581,136,196,176,255,170,9.30,4.13,-2.57,0.07,0.92,0.26,8.97,0.86,3.78,0.24,3.22,-0.16,9.82,1.93,-0.16,0.53,1.46,-0.51,10.43,4.00,-2.19,0.60,1.39,-0.60,8.87,1.91,-3.92,0.21,0.65,-0.68,0.35,0.46,-0.84,36.07,-23.38,-11.60,R
2.632,135,207,183,255,179,8.15,4.31,-0.76,-0.35,0.95,0.14,7.44,2.23,5.81,0.20,3.13,-0.04,9.93,2.18,2.91,0.35,2.41,-0.56,9.19,2.85,0.55,0.29,1.35,-0.54,9.27,0.71,-3.36,0.02,0.25,-0.78,0.29,0.46,-0.81,46.33,-17.33,-11.17,R
2.682,134,209,186,255,178,8.50,3.40,0.12,-0.12,0.60,0.22,2.99,1.15,8.28,0.45,3.46,-0.11,6.58,2.28,3.10,0.24,1.68,-0.42,9.54,3.51,-1.91,0.17,1.28,-0.23,10.13,1.84,-6.91,0.33,1.07,-0.77,0.34,0.49,-0.81,30.58,-15.81,-4.33,R
2.734,134,222,197,255,187,8.40,3.12,0.09,-0.31,0.74,-0.15,2.42,0.66,8.20,0.28,5.10,-0.18,5.89,1.85,5.31,0.49,5.51,-0.20,7.38,2.84,3.06,0.38,3.68,0.05,7.57,1.33,0.59,0.35,4.81,-0.67,0.32,0.50,-0.76,30.27,-13.67,-5.07,R
2.785,133,229,215,255,206,9.84,3.62,-2.92,-0.20,0.54,0.11,4.19,1.60,8.41,-0.04,2.40,-0.49,6.21,2.26,6.63,0.59,3.09,-0.14,9.38,2.66,2.01,-0.08,2.23,-0.32,10.88,-0.95,-0.75,-0.05,2.30,-0.65,0.37,0.54,-0.77,28.87,-23.86,-3.05,R
2.835,131,239,233,255,214,8.33,3.90,-0.19,-0.18,0.64,0.12,-0.47,2.02,10.49,0.05,2.66,-0.24,4.34,5.50,7.31,0.72,3.82,0.24,7.47,5.02,3.17,0.11,2.77,0.03,12.20,1.59,-5.07,0.68,2.71,-0.62,0.33,0.55,-0.72,29.54,-7.51,-5.86,R
2.886,128,244,240,255,226,9.08,4.51,-0.47,0.09,0.28,-0.05,0.90,2.15,10.33,-0.23,1.61,-0.36,3.20,3.86,8.74,0.61,3.37,-0.07,5.63,3.48,7.40,0.36,2.63,-0.49,9.44,1.01,3.51,0.45,2.44,-0.71,0.43,0.54,-0.68,22.16,-13.12,-2.75,R
2.937,122,245,246,255,235,8.93,4.49,-0.27,0.10,-0.09,0.11,0.39,2.20,9.00,-0.11,1.21,-0.22,0.10,5.39,9.61,0.53,2.99,0.16,5.25,3.97,7.55,0.30,2.58,-0.12,7.79,2.96,4.97,0.59,2.37,-0.40,0.37,0.60,-0.75,23.01,-8.61,-4.27,R
2.988,117,248,250,255,239,9.67,4.44,-0.76,0.11,-0.06,-0.00,-1.07,0.84,10.11,-0.07,1.12,-0.23,0.27,4.23,10.02,0.34,2.24,-0.02,4.16,3.54,8.63,0.28,2.16,-0.17,6.73,1.80,6.84,0.58,1.57,-0.25,0.41,0.60,-0.69,12.76,-7.51,-2.01,R
3.039,114,250,255,255,243,9.09,3.58,0.24,0.08,-0.04,0.04,-1.13,1.47,9.70,0.07,1.24,-0.04,-2.36,5.38,10.35,0.54,1.76,-0.03,2.43,5.16,8.83,0.47,1.53,-0.23,7.14,3.32,5.67,0.41,0.24,-0.24,0.38,0.59,-0.67,24.84,-12.39,-11.11,R
3.09,102,252,255,255,243,7.86,3.51,1.16,0.08,-0.29,-0.29,-2.42,1.50,8.84,0.23,1.51,-0.05,-1.69,4.94,8.21,0.37,1.78,0.12,2.70,5.14,8.12,0.07,1.12,-0.47,7.31,4.33,4.81,0.01,-0.23,0.01,0.41,0.59,-0.65,8.61,-7.14,-7.69,R
3.141,99,253,255,255,242,8.21,4.00,1.33,0.01,0.19,-0.29,-3.36,2.75,8.85,0.11,1.88,-0.04,-0.65,5.43,8.86,0.32,1.33,0.08,3.22,5.05,8.25,0.23,1.09,-0.11,7.07,3.50,5.62,-0.12,-1.00,0.03,0.43,0.58,-0.65,9.64,-5.19,-4.15,R
3.192,99,255,255,255,237,8.91,3.29,1.21,0.08,-0.02,-0.27,-5.88,1.33,8.48,0.28,1.48,0.04,-2.69,5.50,7.83,0.15,0.67,0.15,2.83,5.77,7.84,0.14,0.48,-0.01,8.62,3.64,3.60,-0.15,-0.73,0.23,0.42,0.61,-0.67,-5.49,-1.53,-4.64,R
3.243,100,255,255,255,237,8.90,4.76,-0.75,-0.09,0.37,-0.22,-4.68,2.23,8.92,0.13,1.47,-0.01,-1.99,5.45,8.56,0.10,0.37,-0.06,3.07,4.72,8.48,0.11,0.28,-0.10,8.17,3.33,4.39,-0.03,-0.42,-0.04,0.45,0.60,-0.67,3.97,-5.49,-2.75,R
3.294,103,255,255,255,237,8.83,4.14,0.66,-0.02,0.26,-0.23,-6.28,1.14,7.07,0.14,1.48,0.12,-2.26,5.40,7.00,-0.08,0.09,0.09,2.24,4.49,7.99,0.01,0.04,0.12,7.68,3.05,4.19,-0.05,-0.16,0.19,0.45,0.60,-0.67,-3.42,2.44,-1.46,R
3.345,109,255,255,255,233,9.09,4.85,-2.10,0.19,0.20,-0.24,-5.31,4.15,9.36,0.20,0.99,-0.00,-1.24,5.45,8.47,0.12,0.17,-0.01,3.89,5.09,8.23,0.10,0.25,-0.09,9.37,2.60,3.86,0.08,0.07,-0.11,0.42,0.60,-0.66,3.97,-4.21,-1.95,R
3.396,107,255,255,255,234,9.02,3.41,0.14,0.01,0.07,-0.15,-6.17,1.70,6.86,0.07,0.66,0.02,-2.15,5.05,7.39,-0.04,0.05,0.02,3.24,4.22,7.79,0.02,0.07,0.04,8.26,2.63,3.86,0.03,0.01,0.07,0.46,0.58,-0.66,-2.50,-0.61,-1.22,R
3.447,112,255,255,255,234,8.74,4.61,-0.68,0.17,0.18,-0.23,-7.12,3.44,8.02,0.16,0.11,0.14,-2.62,5.63,7.98,0.03,-0.08,0.09,2.91,5.29,8.06,0.05,-0.09,0.04,8.62,3.73,3.96,0.02,-0.06,0.00,0.43,0.58,-0.65,-1.95,-0.18,-2.62,R
3.498,114,255,255,255,233,8.72,4.41,-0.47,-0.10,0.53,-0.18,-5.82,3.07,7.52,-0.04,0.10,-0.00,-2.19,5.37,8.26,-0.11,0.13,0.00,3.27,4.63,8.14,-0.05,0.13,0.05,8.55,3.39,3.85,-0.06,0.13,0.07,0.44,0.60,-0.69,2.32,3.78,0.67,R
3.55,117,255,255,255,232,8.78,4.77,0.81,0.07,-0.03,-0.06,-7.20,2.30,7.80,-0.04,-0.49,0.13,-3.57,5.61,8.50,-0.12,-0.51,0.05,2.05,4.92,9.12,-0.19,-0.64,0.10,7.95,2.88,6.04,-0.17,-0.52,0.06,0.44,0.58,-0.66,-4.88,3.11,0.55,R
3.6,112,255,255,255,232,9.01,4.65,-1.01,-0.03,0.08,-0.06,-5.18,3.44,7.69,0.06,-0.24,0.18,-1.38,5.63,7.96,0.05,-0.31,0.03,3.52,4.66,8.11,0.05,-0.23,-0.03,8.94,2.77,3.62,-0.03,-0.37,-0.11,0.44,0.59,-0.67,3.72,-4.94,-3.42,R
3.651,112,255,253,255,227,8.42,5.02,1.06,-0.10,0.01,0.06,-14.31,4.00,11.81,-0.38,-4.13,0.27,-5.07,6.54,9.26,-0.31,-2.34,0.09,6.56,4.24,6.20,-0.41,-2.03,0.10,10.46,2.38,2.08,-0.36,-1.59,0.04,0.46,0.59,-0.67,-13.79,1.40,2.62,R
3.702,108,252,249,255,225,9.09,5.68,-0.91,-0.21,0.24,-0.16,-3.59,2.16,9.20,0.37,0.31,0.32,-1.18,4.36,8.78,0.30,-0.33,-0.01,3.03,4.08,7.90,0.29,-0.40,-0.33,8.13,3.03,3.39,-0.18,-0.69,-0.43,0.52,0.55,-0.68,4.64,-18.92,-8.24,R
3.753,110,250,248,255,229,9.88,2.76,0.80,-0.87,0.58,-0.73,-8.08,0.64,10.65,1.23,-1.01,0.40,-6.52,4.36,10.36,0.82,-2.78,-0.10,-0.98,3.33,9.76,0.49,-3.29,-0.77,4.63,2.92,4.02,-0.47,-2.96,-1.10,0.67,0.50,-0.70,-25.76,-65.06,-26.79,R
3.804,107,247,243,255,217,9.43,6.12,-2.65,-2.28,1.14,-1.56,-0.37,3.89,8.08,3.02,-0.29,-0.16,1.01,6.85,7.79,2.61,-1.18,-0.55,5.24,6.12,6.47,1.67,-1.31,-1.91,9.52,4.65,0.72,-0.42,-2.40,-1.97,0.50,0.59,-0.73,-26.25,-162.90,-45.41,R
3.855,106,248,241,255,216,9.37,2.39,2.49,-2.57,1.40,-2.05,-9.12,1.52,8.83,3.15,-1.85,-0.58,-5.22,5.23,5.44,2.79,-2.65,-0.58,-3.30,5.42,5.89,1.91,-3.21,-2.37,0.49,6.50,2.49,-1.23,-4.12,-2.46,0.86,0.42,-0.57,-46.69,-170.78,-56.76,R
3.907,106,239,240,255,211,6.66,5.22,-0.86,-4.52,2.29,-3.06,0.46,5.91,3.43,4.52,-3.05,-3.12,1.47,8.57,3.81,4.36,-3.59,-1.92,5.46,8.58,2.78,2.18,-3.92,-4.09,10.88,5.52,-4.56,-1.47,-5.47,-3.43,0.67,0.51,-0.64,-104.43,-311.46,-49.32,R
3.958,106,232,237,255,208,4.38,2.91,8.09,-3.14,1.32,-2.91,-6.93,6.77,5.02,2.89,-4.01,-2.84,-3.55,9.95,2.47,2.78,-4.59,-1.36,-1.97,9.72,3.55,1.24,-5.65,-3.09,1.34,9.27,-1.01,-1.56,-6.35,-2.24,0.92,0.31,-0.30,-72.14,-210.33,-55.91,R
4.009,102,225,230,255,200,3.32,6.52,2.74,-4.34,1.54,-2.50,0.64,6.70,1.81,2.35,-3.76,-4.59,4.19,8.66,-2.27,3.52,-4.19,-3.14,4.55,10.60,-3.25,0.83,-4.54,-4.96,6.31,9.79,-8.56,-3.08,-5.17,-2.92,0.94,0.35,-0.14,-70.13,-298.83,-27.53,R
4.059,103,218,230,255,193,1.33,-0.29,11.31,-3.36,1.71,-2.10,-6.71,6.17,5.05,1.18,-2.36,-3.75,-3.78,9.82,-1.02,2.35,-3.57,-2.22,-2.66,9.86,1.42,0.54,-4.33,-3.46,1.58,8.62,-3.24,-1.87,-3.84,-1.90,0.76,0.28,0.15,-36.87,-192.63,-42.42,R
4.111,98,207,226,255,184,0.76,3.13,6.64,-2.88,1.12,-1.45,-1.94,6.04,2.64,-0.02,-3.17,-3.58,-1.92,7.45,-3.24,1.04,-5.81,-3.08,-2.26,8.85,-3.39,-0.72,-6.11,-4.27,-0.78,9.20,-3.48,-2.84,-5.06,-1.99,0.89,0.29,0.36,-18.55,-205.87,-26.61,R
4.162,98,195,212,255,174,1.05,-1.59,8.77,-3.07,1.90,-1.38,-6.30,3.43,5.31,0.22,-1.14,-4.04,-5.92,8.74,5.29,2.21,-9.71,-3.15,-6.19,8.50,2.44,-0.30,-3.77,-4.34,-0.62,10.82,-2.20,-2.35,-4.41,-2.51,0.76,0.26,0.49,-1.16,-214.05,-48.83,R
4.213,96,182,197,255,165,-1.59,-0.63,11.21,-2.36,0.37,-0.53,-6.82,6.40,5.60,-0.55,-1.49,-2.80,-7.88,9.60,-0.53,-0.21,-8.93,-2.48,-5.62,8.60,1.78,-1.18,-5.46,-2.91,-2.24,8.89,-0.25,-1.98,-3.48,-1.33,0.61,0.21,0.70,16.60,-134.09,-34.97,R
4.264,91,167,170,255,156,0.10,-2.83,10.12,-1.54,1.25,-1.08,-7.52,0.31,6.59,-0.49,0.38,-2.46,-9.16,5.70,-0.40,-0.21,-4.15,-2.75,-6.84,7.65,4.54,-0.82,-3.31,-2.84,-3.29,10.83,2.33,-1.70,-2.65,-1.36,0.71,0.15,0.73,-4.15,-127.87,-45.72,R
4.315,88,157,153,255,148,-2.83,0.95,11.56,-1.28,0.28,-1.73,-8.37,3.73,7.47,0.01,-0.74,-2.48,-6.79,8.35,3.64,-0.16,-2.35,-2.21,-5.05,7.03,4.30,-0.76,-2.30,-1.93,-2.33,8.42,1.44,-1.46,-2.13,-0.56,0.45,0.20,0.82,-27.77,-109.92,-41.32,R
4.366,85,142,145,255,147,0.91,-6.05,9.07,-1.10,0.59,-1.55,-6.12,-2.09,6.85,0.42,-1.03,-2.31,-7.48,0.22,7.14,-0.23,-2.63,-2.21,-4.94,0.04,6.91,-0.66,-2.13,-2.20,-3.60,5.94,4.78,-1.23,-2.15,-1.66,0.60,0.14,0.77,-14.16,-83.92,-70.50,R
4.417,66,131,139,255,143,-4.69,7.04,11.13,-1.52,0.19,-1.69,-7.49,5.02,7.59,0.03,-1.47,-2.92,-6.94,10.62,5.52,-0.10,-2.84,-2.36,-4.52,10.97,4.67,-1.11,-2.79,-1.95,-1.88,8.43,2.40,-1.87,-2.21,-0.47,0.23,0.20,0.85,-25.63,-138.12,-46.45,R
4.467,60,124,132,255,142,0.26,-6.69,9.64,-1.05,0.80,-1.20,-4.12,-0.04,5.35,-0.19,-1.17,-1.87,-4.04,-0.51,5.39,-1.21,-2.94,-1.73,-4.52,0.27,7.80,-1.13,-2.31,-1.64,-3.82,6.34,7.30,-1.44,-2.67,-1.10,0.43,0.18,0.84,-11.90,-72.75,-53.16,R
4.518,57,120,123,255,134,-1.51,-0.59,5.29,-0.67,0.57,-2.10,-6.07,-0.58,7.27,-0.02,-1.08,-3.21,-3.10,2.83,7.58,-0.67,-2.46,-2.94,-3.65,3.42,8.03,-1.87,-3.03,-2.76,-1.39,7.91,5.55,-2.19,-3.44,-1.78,0.15,0.19,0.92,17.40,-137.82,-81.36,R
4.569,40,103,110,255,120,-1.88,-8.16,9.34,-1.00,0.72,0.20,-5.85,1.42,8.06,0.16,-1.39,-1.76,-5.49,2.63,7.67,-0.72,-1.80,-1.63,-2.48,0.25,7.69,-1.60,-1.06,-1.03,-1.74,4.29,6.54,-1.05,-1.06,-1.01,0.15,0.03,0.98,43.21,-50.23,-65.49,R
4.621,29,87,95,255,109,-2.26,-8.33,10.89,0.17,0.42,-0.97,-5.84,-2.76,8.69,0.99,-0.78,-1.70,-4.01,0.69,8.59,-0.28,-1.40,-1.53,-3.29,0.56,9.52,-0.70,-1.14,-1.17,-1.28,5.82,7.57,-0.61,-1.25,-0.84,0.18,-0.04,1.04,42.42,-23.50,-68.05,R
4.671,19,70,80,255,91,-2.43,-2.10,10.33,0.27,0.31,0.51,-6.82,3.75,11.19,0.53,-0.44,-0.68,-9.16,4.48,8.38,0.04,-1.01,-0.49,-3.94,2.00,10.85,-0.44,-0.64,-0.37,-2.87,6.12,9.29,0.24,0.14,-0.62,0.25,-0.14,1.01,40.16,3.42,-46.08,R
4.722,12,59,70,255,80,-1.69,-3.51,10.32,0.21,0.25,-0.34,-5.56,-0.64,9.72,0.62,-0.79,-0.47,-5.82,2.18,9.94,0.08,-0.76,-0.48,-3.39,1.01,10.60,-0.13,-0.49,-0.44,-2.06,4.82,7.74,-0.24,-0.58,-0.12,0.31,-0.16,1.05,-0.12,-3.48,-30.46,R
4.773,13,49,63,255,68,-1.68,-2.45,10.18,0.43,-0.04,-0.46,-4.07,0.99,8.02,0.43,-0.40,-0.34,-4.26,1.78,8.62,0.25,-0.71,-0.10,-2.72,0.88,9.60,0.35,-0.18,-0.09,-1.56,5.43,7.48,0.50,-0.04,-0.39,0.14,-0.06,0.96,14.71,27.89,-24.78,R
4.824,14,41,55,255,59,-1.16,-3.23,7.90,0.42,0.17,-0.18,-4.62,0.09,9.94,0.50,-0.47,-0.41,-3.66,0.52,8.71,0.05,-0.60,-0.38,-2.67,1.30,11.93,-0.05,-0.29,-0.40,-1.85,7.14,8.49,-0.12,-0.39,-0.14,0.38,-0.18,0.96,8.91,-1.71,-20.75,R
4.876,12,34,50,255,50,-1.92,-2.01,9.72,0.15,0.16,-0.32,-4.10,2.41,8.50,0.07,-0.12,-0.15,-2.74,2.57,6.64,0.13,0.11,-0.11,-2.06,0.98,7.21,0.25,0.32,-0.11,-1.70,4.69,6.48,0.25,0.32,-0.13,0.18,-0.08,0.97,7.63,11.96,-11.11,R
4.926,12,33,48,255,48,-1.43,-1.95,9.19,0.63,0.12,0.07,-5.00,0.31,10.51,0.29,-0.07,0.62,-3.69,2.10,10.07,0.38,0.00,-0.08,-3.02,1.90,10.52,0.86,0.49,-0.89,-1.80,6.40,7.77,0.29,0.15,-0.54,0.37,-0.15,0.93,17.70,20.26,-9.40,R
4.977,11,30,45,255,48,-1.43,-2.75,9.30,0.25,0.14,0.43,-3.28,0.63,7.76,-0.11,-0.51,0.45,-2.95,3.47,8.09,0.22,-0.35,0.08,-2.32,0.83,7.54,0.12,0.34,0.31,-1.96,4.82,6.81,0.05,0.34,-0.10,0.22,-0.10,0.91,20.26,11.54,1.04,R
5.028,12,28,43,255,58,-1.59,-2.48,9.27,0.57,-0.11,0.42,-3.84,0.70,8.41,0.20,-0.45,0.50,-3.64,3.41,7.22,-0.54,-1.06,0.26,-3.16,2.79,9.01,-0.79,-1.11,0.11,-1.39,2.48,1.32,-1.33,-0.16,0.64,0.46,-0.25,0.96,26.18,20.08,5.37,R
5.079,14,28,40,255,43,-2.48,-1.02,10.81,-0.23,0.05,0.14,-3.45,2.48,8.82,-0.32,-0.20,0.24,-2.33,2.26,9.08,0.24,-0.06,0.05,-1.77,-0.07,9.15,0.15,-0.05,0.08,-1.40,5.44,8.00,0.20,-0.08,0.13,0.15,-0.03,1.08,-28.69,3.30,6.71,R
5.131,14,27,38,255,45,-0.66,-3.85,9.12,0.08,0.01,0.03,-4.18,0.44,13.51,0.39,-0.30,-0.07,-2.29,1.20,9.64,-0.40,-0.41,0.04,-2.22,0.84,9.84,-0.36,-0.26,-0.02,-1.73,5.93,7.87,-0.73,-0.02,0.07,0.40,-0.17,0.89,3.48,3.97,-4.46,R
5.182,12,23,38,255,52,-1.39,-3.83,9.44,-0.66,0.10,-0.24,-3.04,0.23,9.81,-0.37,-0.28,-0.24,-1.37,0.79,9.68,-0.34,-0.34,-0.10,-1.52,-0.69,9.74,-0.45,-0.19,-0.01,-1.39,4.72,8.34,-0.27,0.01,0.05,0.10,-0.10,1.12,-11.47,-18.49,4.58,R
5.232,14,25,34,255,43,-1.43,-3.51,9.29,0.30,0.06,0.13,-3.01,0.46,9.53,0.28,-0.00,0.10,-1.95,1.43,9.42,-0.03,-0.03,0.07,-1.92,0.87,9.73,0.06,0.04,0.03,-1.73,5.54,8.26,0.05,0.05,0.03,0.36,-0.14,0.92,0.37,19.35,0.00,R
5.283,15,22,34,255,42,-1.36,-3.22,9.43,-0.21,0.03,-0.06,-2.99,0.25,9.50,-0.05,-0.10,-0.07,-1.91,1.18,9.55,-0.15,-0.11,-0.03,-1.70,0.49,9.63,-0.15,-0.06,-0.03,-1.35,5.33,8.33,-0.13,-0.01,-0.01,0.26,-0.12,0.97,0.00,-3.05,2.93,R
5.334,15,22,32,255,43,-1.17,-3.65,9.22,-0.15,0.06,-0.07,-2.64,0.20,9.52,-0.05,-0.14,-0.04,-1.74,1.10,9.64,-0.18,-0.09,0.00,-1.65,0.52,9.71,-0.11,-0.02,-0.03,-1.55,5.35,8.32,-0.11,0.02,-0.04,0.29,-0.10,0.98,-2.20,0.61,0.31,R
5.386,18,21,32,255,43,-1.65,-3.40,9.29,-0.07,0.10,-0.03,-2.73,0.32,9.57,-0.09,-0.09,-0.04,-1.73,0.98,9.66,-0.23,-0.08,-0.00,-1.70,0.16,9.78,-0.13,-0.01,-0.02,-1.47,5.09,8.40,-0.13,0.01,-0.01,0.25,-0.13,0.96,0.31,-1.16,-0.24,R
5.436,17,20,30,255,43,-1.41,-3.52,9.26,0.01,0.01,-0.02,-2.74,0.22,9.50,0.09,-0.06,0.01,-1.82,1.11,9.59,0.04,-0.04,0.00,-1.78,0.60,9.67,0.01,-0.01,-0.01,-1.60,5.44,8.32,-0.02,-0.00,0.02,0.31,-0.12,0.97,-1.10,3.72,-0.67,R
5.487,18,19,31,255,43,-1.32,-3.78,9.15,-0.17,-0.01,-0.04,-2.46,0.23,9.54,-0.10,-0.11,-0.05,-1.58,0.97,9.69,-0.16,-0.09,-0.03,-1.62,0.33,9.75,-0.16,-0.03,-0.03,-1.40,5.00,8.47,-0.24,-0.01,-0.03,0.26,-0.10,0.97,1.16,-3.72,0.67,R
5.538,19,19,30,255,43,-1.72,-3.57,9.26,-0.15,-0.02,0.03,-2.68,0.31,9.61,-0.02,-0.05,-0.03,-1.61,0.95,9.69,-0.08,-0.06,-0.01,-1.58,0.38,9.79,-0.13,-0.05,-0.01,-1.44,5.09,8.51,-0.09,-0.00,-0.00,0.28,-0.12,0.96,3.23,-2.01,0.98,R
5.589,15,17,28,255,41,-1.46,-3.62,9.24,0.02,-0.03,0.21,-1.80,0.17,9.54,-0.24,-0.14,-0.01,-1.56,1.00,9.62,-0.05,-0.06,-0.03,-1.65,-0.09,9.81,-0.16,-0.06,-0.02,-1.43,4.86,8.47,-0.12,-0.04,-0.03,0.26,-0.12,0.97,3.72,-7.81,1.16,R
5.64,17,17,30,255,43,-2.24,-2.23,9.78,0.33,0.05,0.31,-2.65,0.81,9.52,-0.24,-0.22,0.04,-2.09,1.15,9.42,-0.02,-0.15,0.04,-1.54,-0.33,9.72,-0.17,-0.15,0.08,-1.38,4.72,8.57,0.48,-0.14,-0.04,0.28,-0.12,0.97,7.20,-4.46,0.98,R
5.691,15,13,30,255,41,-1.25,-4.05,9.25,0.24,-0.18,0.62,-2.52,0.59,9.53,-0.38,-0.23,0.47,-1.27,1.57,9.51,0.18,-0.21,-0.03,-0.97,2.54,10.20,0.64,-0.43,0.38,-0.97,5.98,7.78,0.09,-0.40,0.24,0.23,-0.11,0.93,5.55,1.46,6.53,R
5.743,15,10,30,255,36,-1.72,-2.38,9.83,0.12,-0.28,0.59,-2.90,2.23,8.97,-0.01,-0.21,1.08,-3.03,5.84,12.38,-0.68,-0.05,3.30,-1.71,-2.03,11.79,-0.86,-0.75,1.35,-1.61,4.62,9.06,-0.84,-0.21,-0.32,0.42,-0.12,1.02,9.46,1.83,21.06,R
5.794,16,8,27,255,29,-0.74,-5.35,8.53,0.02,-0.57,0.76,-1.83,-4.29,9.61,-0.61,-0.13,0.49,0.21,-0.64,5.82,0.25,-0.06,-0.14,-0.11,-1.08,7.52,0.07,-0.01,-0.22,-0.72,4.19,9.20,0.38,-0.03,-0.22,0.09,-0.08,0.96,7.93,-6.10,5.80,R
5.845,14,4,27,255,28,-1.89,-1.26,10.18,0.63,-0.51,0.72,-2.89,8.01,9.70,0.76,-0.31,1.11,-1.57,4.62,10.02,0.10,-0.22,0.45,-1.58,3.08,10.34,0.03,-0.23,0.12,-1.83,5.98,8.61,0.35,-0.40,-0.52,0.38,-0.19,0.96,12.51,1.71,14.16,R
5.896,9,1,24,255,24,-0.84,-3.45,9.10,0.12,-0.36,0.45,-1.54,-0.15,9.69,-0.28,-0.16,0.34,-0.19,-2.49,8.67,-0.25,0.50,0.46,-0.34,-2.39,8.90,-0.22,0.51,0.10,-0.65,4.75,8.46,0.27,-0.34,-0.34,0.14,-0.10,1.03,10.86,-14.16,9.52,R
5.947,9,0,25,255,17,-3.03,-1.93,8.76,0.48,-0.47,0.18,-1.84,0.15,10.05,-0.20,-0.22,0.02,-1.64,2.86,11.03,0.01,0.01,0.11,-0.99,1.03,10.09,-0.27,0.02,-0.12,-1.36,4.87,8.43,0.03,-0.11,-0.15,0.30,-0.19,0.93,9.22,-1.22,3.30,R
5.997,7,0,24,255,14,-0.55,-2.93,9.46,0.01,-0.13,0.28,-1.52,-0.96,9.76,0.06,-0.01,0.21,-1.30,-2.07,11.10,-0.41,0.25,0.02,-1.09,-0.24,9.97,-0.02,0.08,-0.04,-1.02,4.77,8.65,0.36,-0.17,-0.11,0.24,-0.16,0.97,-0.67,-0.67,5.37,R
6.048,7,0,23,255,8,-0.78,-2.80,9.69,-0.04,-0.04,0.15,-1.47,-1.11,9.86,-0.12,-0.06,0.02,-1.65,1.22,9.34,-0.24,0.03,0.02,-1.08,0.48,9.79,-0.11,0.09,-0.03,-0.99,5.20,8.49,-0.06,0.01,-0.08,0.27,-0.15,0.95,0.73,-0.55,1.04,R
6.099,6,0,23,255,6,-0.87,-2.76,9.84,-0.01,0.00,0.00,-1.82,-0.76,9.63,-0.20,0.02,0.05,-1.24,0.89,9.63,-0.15,-0.01,0.01,-1.19,0.05,9.86,-0.03,0.04,0.00,-1.11,4.67,8.68,0.01,0.02,0.00,0.25,-0.16,0.96,0.61,-0.92,2.26,R
6.15,7,0,20,255,7,-0.93,-2.58,9.60,0.04,0.01,-0.03,-1.56,0.00,9.71,0.01,-0.01,-0.01,-1.12,1.11,9.51,-0.26,0.02,0.02,-0.99,0.07,9.67,-0.19,0.04,0.00,-1.00,4.53,8.75,0.10,-0.05,-0.10,0.26,-0.13,1.00,-0.12,-0.31,0.43,R
6.202,7,0,21,255,7,-0.76,-2.75,9.50,-0.00,0.03,0.11,-1.61,-0.75,9.74,-0.28,0.03,0.01,-1.22,1.16,9.65,-0.17,0.02,-0.06,-1.07,0.02,10.08,-0.01,0.06,-0.07,-1.02,5.20,8.58,0.03,-0.01,-0.08,0.26,-0.15,0.93,-0.79,0.55,1.59,R
6.252,5,0,20,255,7,-0.94,-2.52,9.72,0.08,0.05,-0.05,-1.66,-0.63,9.67,0.11,0.08,-0.02,-1.29,1.21,9.63,0.06,0.05,-0.05,-1.15,0.47,9.85,-0.01,0.05,-0.03,-0.99,5.13,8.54,-0.09,0.04,-0.03,0.25,-0.15,0.97,-3.36,-0.18,3.23,R
6.304,9,0,19,255,7,-1.00,-1.70,10.08,0.00,0.06,0.04,-0.62,0.43,9.85,0.04,0.02,-0.02,-1.34,0.81,9.82,-0.09,0.01,-0.02,-1.22,0.14,9.91,-0.07,0.03,-0.02,-1.07,5.01,8.65,-0.10,0.03,-0.01,0.28,-0.14,0.95,-1.04,1.53,3.72,R
6.354,6,0,18,255,8,-0.71,-2.52,9.57,0.02,0.08,-0.04,-1.64,-0.60,9.72,0.20,0.07,-0.04,-1.29,0.97,9.73,0.06,0.01,-0.03,-1.30,0.37,9.82,-0.05,0.04,-0.00,-1.01,4.99,8.58,-0.07,0.02,0.01,0.27,-0.14,0.96,-0.98,1.10,1.46,R
6.405,6,0,17,255,7,-0.77,-2.70,9.62,-0.07,0.08,-0.02,-1.69,-0.39,9.65,0.20,0.05,-0.04,-1.27,0.97,9.66,-0.03,-0.01,-0.00,-1.22,0.23,9.75,-0.07,0.03,-0.00,-0.96,4.83,8.60,-0.15,0.05,0.03,0.28,-0.14,0.95,-1.10,1.59,1.95,R
6.456,7,0,17,255,8,-0.88,-2.64,9.62,-0.02,0.03,-0.02,-1.57,-0.30,9.71,0.16,0.05,-0.02,-1.25,1.04,9.70,-0.01,-0.00,-0.01,-1.19,0.13,9.79,-0.03,0.04,-0.01,-1.02,4.78,8.70,-0.05,0.03,-0.00,0.28,-0.13,0.96,0.06,2.14,0.85,R
6.507,7,0,16,255,8,-0.93,-2.72,9.64,-0.05,0.12,-0.03,-1.69,-0.24,9.75,0.11,0.09,-0.01,-1.26,0.96,9.67,0.04,0.03,-0.01,-1.30,0.11,9.77,0.02,0.10,-0.01,-1.02,4.99,8.65,-0.08,0.06,0.02,0.26,-0.13,0.95,-1.53,1.89,1.28,R
6.558,9,0,19,255,9,-1.20,-2.31,9.73,-0.14,0.12,-0.06,-1.76,-0.42,9.72,0.11,0.07,-0.03,-1.17,0.98,9.67,-0.02,0.01,-0.00,-1.12,-0.05,9.85,-0.00,0.09,0.00,-1.21,4.88,8.73,-0.22,0.12,0.04,0.26,-0.13,0.98,-1.95,0.55,3.17,R
6.609,11,0,16,255,10,-1.02,-2.75,9.54,-0.10,0.07,-0.05,-1.89,0.15,9.87,0.17,0.10,-0.04,-1.31,0.99,9.77,0.03,0.01,-0.01,-1.29,-0.05,9.86,0.03,0.06,-0.00,-1.00,4.66,8.79,-0.05,0.04,0.02,0.27,-0.13,0.98,-1.04,1.04,2.50,R
6.66,10,0,18,255,0,-1.02,-2.57,9.59,-0.03,0.05,-0.01,-1.77,0.06,9.78,0.10,0.08,-0.02,-1.29,1.20,9.71,0.01,0.04,-0.02,-1.35,0.16,9.83,0.00,0.03,-0.01,-1.08,4.64,8.76,-0.05,0.02,0.01,0.27,-0.13,0.96,-0.73,1.95,0.92,R
6.712,10,0,19,255,11,-1.01,-2.70,9.53,-0.02,0.05,-0.01,-1.84,-0.06,9.73,0.14,0.07,0.04,-1.34,1.24,9.65,0.03,0.03,-0.01,-1.27,0.17,9.79,-0.01,0.02,-0.00,-1.06,4.72,8.79,-0.03,0.03,-0.00,0.28,-0.12,0.97,-1.10,1.46,0.31,R
6.762,10,0,21,255,13,-1.14,-2.54,9.57,0.03,0.06,-0.03,-1.83,0.14,9.67,0.04,0.06,-0.02,-1.28,1.13,9.69,-0.04,0.03,-0.01,-1.36,0.02,9.76,-0.02,0.04,-0.01,-0.97,5.15,9.09,0.14,0.07,0.04,0.28,-0.12,0.96,0.67,1.46,0.79,R
6.813,11,0,16,255,11,-1.10,-2.82,9.56,0.01,0.07,-0.00,-1.95,0.23,9.68,0.10,0.05,0.01,-1.43,1.19,9.67,-0.00,0.01,-0.00,-1.40,0.12,9.82,-0.02,0.03,-0.00,-1.06,4.50,8.87,-0.20,0.08,0.01,0.28,-0.13,0.96,1.04,1.59,0.55,R
6.865,11,0,19,255,12,-1.31,-2.47,9.66,-0.01,0.05,-0.01,-1.88,0.12,9.73,-0.03,0.04,0.00,-1.27,1.03,9.66,-0.05,0.03,0.01,-1.34,0.09,9.76,0.03,0.05,-0.00,-1.12,4.63,8.86,-0.07,0.05,0.01,0.28,-0.12,0.97,0.31,0.98,0.49,R
6.915,11,0,17,255,12,-1.09,-2.67,9.55,-0.02,0.05,-0.01,-1.88,0.07,9.75,0.00,0.07,-0.00,-1.34,1.03,9.70,-0.02,0.04,-0.00,-1.44,0.12,9.77,0.03,0.03,-0.01,-1.10,4.51,8.84,-0.03,0.04,-0.00,0.27,-0.12,0.96,-0.37,0.67,-0.06,R
6.966,11,0,17,255,14,-1.24,-2.68,9.54,0.02,0.08,-0.02,-2.02,0.09,9.66,0.06,0.07,-0.01,-1.39,1.30,9.65,0.03,0.02,-0.01,-1.38,0.25,9.83,-0.03,0.03,0.00,-1.07,4.50,8.90,-0.06,0.04,0.00,0.28,-0.12,0.97,0.06,0.92,0.31,R
7.017,12,0,17,255,14,-1.12,-2.68,9.55,-0.04,0.05,-0.01,-2.00,0.32,9.72,0.02,0.05,0.00,-1.44,1.15,9.69,-0.02,0.03,-0.01,-1.41,0.14,9.78,0.01,0.03,-0.01,-1.23,4.58,8.79,0.01,0.02,-0.01,0.29,-0.12,0.96,0.43,0.85,-0.31,R
7.069,12,0,17,255,13,-1.15,-2.90,9.46,0.01,0.10,-0.03,-1.94,0.23,9.69,0.02,0.06,-0.00,-1.47,1.23,9.68,0.01,0.03,-0.01,-1.41,0.21,9.83,0.02,0.02,-0.01,-1.12,4.54,8.91,-0.04,0.02,0.00,0.28,-0.12,0.96,0.61,0.67,-0.24,R
7.12,13,0,19,255,13,-1.27,-2.74,9.60,-0.02,0.07,-0.01,-1.99,0.16,9.72,0.04,0.04,-0.01,-1.43,1.17,9.62,-0.02,0.01,-0.01,-1.40,0.25,9.77,-0.01,0.02,-0.01,-1.10,4.46,8.84,-0.07,0.03,-0.01,0.28,-0.12,0.96,1.53,0.18,0.43,R
7.171,12,0,19,255,13,-1.33,-2.77,9.53,0.03,0.04,0.01,-1.92,0.26,9.72,-0.01,0.06,0.01,-1.42,1.23,9.61,-0.01,0.04,-0.00,-1.45,0.18,9.77,0.00,0.03,-0.00,-1.19,4.54,8.94,-0.02,0.03,-0.01,0.29,-0.12,0.96,0.79,0.98,0.37,R
7.222,14,0,17,255,14,-1.33,-2.67,9.42,-0.01,0.03,-0.00,-2.00,0.25,9.68,0.02,0.05,-0.00,-1.43,1.21,9.71,-0.04,0.01,-0.00,-1.47,0.16,9.83,-0.01,0.02,-0.00,-1.20,4.46,8.89,-0.01,0.02,-0.00,0.28,-0.13,0.96,1.22,0.31,0.12,R
7.273,13,0,17,255,16,-1.30,-2.61,9.53,-0.02,0.04,-0.02,-2.08,0.43,9.69,0.02,0.06,-0.01,-1.51,1.18,9.66,-0.03,0.03,0.00,-1.43,0.12,9.80,0.00,0.03,-0.01,-1.12,4.43,8.85,-0.03,0.03,-0.00,0.29,-0.12,0.97,0.43,0.73,0.37,R
7.323,14,0,17,255,17,-1.27,-2.77,9.57,0.01,0.06,-0.01,-2.00,0.22,9.70,0.03,0.06,-0.01,-1.42,1.21,9.69,-0.01,0.03,-0.01,-1.43,0.19,9.71,0.02,0.03,-0.01,-1.10,4.49,8.86,-0.03,0.03,-0.01,0.28,-0.13,0.96,1.10,1.04,0.24,R
7.376,14,0,17,255,13,-1.37,-2.80,9.52,-0.01,0.07,-0.01,-2.16,0.31,9.70,0.00,0.06,0.01,-1.51,1.08,9.65,0.00,0.05,-0.00,-1.50,0.21,9.76,0.04,0.04,-0.01,-1.09,4.53,8.89,-0.03,0.03,0.01,0.29,-0.12,0.96,-0.24,1.40,0.18,R
7.427,14,0,16,255,15,-1.36,-2.80,9.56,-0.03,0.05,-0.01,-1.83,0.34,9.72,0.02,0.08,-0.01,-1.40,1.28,9.65,-0.02,0.04,-0.01,-1.45,0.23,9.79,-0.01,0.03,-0.02,-1.19,4.41,8.87,-0.05,0.03,-0.02,0.29,-0.12,0.96,1.04,-0.31,-0.12,R
7.476,15,0,21,255,14,-1.40,-2.74,9.53,0.01,0.07,-0.03,-2.11,0.40,9.61,0.05,0.08,-0.01,-1.54,1.23,9.63,-0.02,0.04,-0.01,-1.47,0.15,9.76,0.00,0.03,-0.01,-1.18,4.45,8.87,0.01,0.03,-0.01,0.29,-0.12,0.96,-0.12,0.00,-0.85,R
7.527,19,0,16,255,18,-1.42,-2.56,9.52,0.04,0.09,-0.06,-2.13,0.27,9.63,0.04,0.08,0.00,-1.52,1.18,9.66,-0.00,0.06,-0.01,-1.50,0.20,9.73,0.02,0.03,-0.01,-1.12,4.49,8.92,-0.02,0.03,-0.01,0.28,-0.12,0.96,0.18,0.31,-0.73,R
7.578,15,0,21,255,19,-1.41,-2.74,9.55,0.00,0.05,-0.00,-2.07,0.38,9.64,0.02,0.06,0.00,-1.59,1.35,9.65,-0.01,0.04,-0.01,-1.55,0.21,9.79,-0.00,0.03,-0.01,-1.24,4.39,8.95,0.00,0.03,-0.01,0.29,-0.13,0.96,1.53,0.49,-0.85,R
7.629,18,0,18,255,15,-1.53,-2.73,9.52,0.01,0.06,-0.03,-2.17,0.31,9.66,0.04,0.03,-0.00,-1.54,1.22,9.68,-0.03,0.01,-0.00,-1.46,0.18,9.78,0.00,0.03,-0.00,-1.12,4.39,8.94,-0.02,0.03,-0.00,0.28,-0.12,0.97,2.14,-0.37,-0.67,R
7.68,16,0,19,255,17,-1.47,-2.73,9.51,-0.00,0.04,-0.01,-2.14,0.28,9.63,0.04,0.06,0.01,-1.60,1.33,9.62,-0.02,0.02,0.00,-1.52,0.22,9.74,0.01,0.02,-0.00,-1.24,4.46,8.87,-0.03,0.04,0.01,0.29,-0.13,0.96,1.22,0.31,-0.55,R
7.732,17,0,19,255,18,-1.55,-2.79,9.51,0.01,0.04,-0.02,-2.19,0.34,9.63,0.02,0.03,0.00,-1.54,1.27,9.71,0.00,0.03,-0.00,-1.47,0.23,9.76,0.00,0.03,0.01,-1.14,4.35,8.94,-0.02,0.04,0.01,0.29,-0.12,0.96,0.24,0.06,-0.18,R
7.783,16,0,20,255,17,-1.51,-2.80,9.52,-0.00,0.01,0.00,-2.29,0.33,9.73,0.01,0.07,0.02,-1.61,1.25,9.61,0.03,0.06,0.01,-1.58,0.28,9.78,0.06,0.05,0.01,-1.21,4.25,8.77,0.05,0.04,0.02,0.29,-0.13,0.96,-1.65,1.77,0.18,R
7.833,17,0,19,255,19,-1.47,-2.66,9.47,0.02,0.03,-0.01,-2.25,0.34,9.70,0.09,0.06,0.00,-1.70,1.44,9.71,0.05,0.03,0.00,-1.60,0.50,9.87,-0.05,0.02,0.02,-1.16,4.56,8.94,-0.01,0.02,-0.00,0.29,-0.12,0.96,-1.28,1.04,-0.79,R
7.884,19,0,20,255,19,-1.48,-2.89,9.53,-0.05,0.07,-0.01,-2.19,0.69,9.67,0.10,0.06,-0.01,-1.67,1.36,9.60,0.01,0.01,-0.01,-1.57,0.29,9.79,0.02,0.02,-0.00,-1.13,4.39,8.95,-0.02,0.03,0.00,0.29,-0.12,0.96,-1.34,0.92,-0.61,R
7.935,18,0,20,255,20,-1.49,-2.91,9.43,-0.05,0.05,-0.02,-2.22,0.56,9.63,0.06,0.08,0.00,-1.56,1.33,9.59,0.04,0.05,-0.01,-1.53,0.34,9.73,0.04,0.04,-0.00,-1.14,4.38,8.92,0.01,0.02,0.00,0.29,-0.12,0.96,-4.03,0.18,-0.55,R
7.986,20,0,23,255,19,-1.57,-2.82,9.50,-0.02,0.06,-0.01,-2.34,0.51,9.66,0.01,0.10,0.01,-1.66,1.46,9.55,0.02,0.06,-0.00,-1.62,0.44,9.73,0.03,0.05,-0.01,-1.17,4.36,8.93,-0.01,0.02,-0.01,0.30,-0.11,0.96,-1.95,1.53,0.00,R
8.037,22,12,20,255,18,-1.57,-2.86,9.47,-0.06,0.02,-0.02,-2.44,0.55,9.49,0.02,0.05,0.00,-1.60,1.44,9.59,-0.05,0.03,-0.00,-1.61,0.34,9.74,-0.02,0.04,0.00,-1.21,4.40,8.93,-0.02,0.03,-0.01,0.29,-0.11,0.96,-0.55,-0.61,0.92,R
8.088,19,0,21,255,17,-1.44,-2.98,9.43,-0.04,0.02,-0.02,-2.33,0.53,9.53,-0.05,0.08,0.00,-1.67,1.37,9.57,0.01,0.04,-0.00,-1.62,0.34,9.78,0.03,0.04,-0.00,-1.18,4.41,8.68,-0.04,0.05,0.04,0.29,-0.12,0.97,-1.46,0.98,1.22,R
8.14,19,0,23,255,10,-1.58,-2.80,9.47,-0.00,0.01,-0.00,-2.33,0.59,9.58,-0.02,0.05,0.01,-1.70,1.52,9.59,-0.03,0.02,0.00,-1.58,0.41,9.77,-0.00,0.03,-0.00,-1.20,4.39,8.94,-0.02,0.02,0.00,0.30,-0.11,0.96,-0.67,0.18,0.98,R
8.191,20,0,21,255,20,-1.58,-2.88,9.51,-0.04,0.01,-0.01,-2.34,0.58,9.66,0.03,0.03,-0.01,-1.79,1.44,9.59,-0.03,0.01,-0.00,-1.61,0.45,9.76,-0.02,0.02,-0.01,-1.18,4.31,8.96,-0.02,0.02,-0.01,0.29,-0.11,0.96,-0.49,-0.67,0.73,R
8.241,18,0,19,255,19,-1.60,-2.94,9.49,-0.00,0.01,0.00,-2.33,0.43,9.61,-0.00,0.04,0.00,-1.70,1.30,9.56,-0.00,0.02,0.00,-1.62,0.45,9.74,0.00,0.03,-0.00,-1.16,4.26,8.99,-0.01,0.02,0.00,0.30,-0.11,0.96,-0.61,0.67,0.85,R
8.292,19,0,20,255,18,-1.53,-2.86,9.43,0.01,0.01,-0.02,-2.38,0.33,9.60,-0.03,0.05,0.00,-1.70,1.36,9.54,-0.01,0.01,0.00,-1.64,0.45,9.80,-0.01,0.02,0.00,-1.19,4.25,8.96,0.00,0.02,-0.00,0.30,-0.10,0.96,0.06,0.61,1.22,R
8.343,19,0,19,255,19,-1.59,-2.82,9.46,-0.02,0.01,-0.01,-2.37,0.58,9.51,-0.02,0.03,-0.01,-1.73,1.39,9.62,-0.03,0.01,-0.01,-1.62,0.32,9.75,-0.01,0.02,-0.00,-1.16,4.30,8.98,0.01,0.02,-0.01,0.29,-0.11,0.96,0.12,-0.06,1.16,R
8.395,19,0,20,255,18,-1.50,-3.00,9.47,-0.02,-0.00,-0.01,-2.40,0.50,9.58,0.00,0.03,-0.01,-1.70,1.47,9.59,-0.05,-0.00,0.01,-1.62,0.35,9.77,-0.02,0.01,0.00,-1.20,4.22,8.96,-0.02,0.01,-0.00,0.30,-0.10,0.96,-0.24,0.12,0.92,R
8.445,13,0,23,255,17,-1.57,-2.85,9.45,-0.04,0.02,-0.01,-2.38,0.52,9.57,-0.02,0.02,-0.01,-1.71,1.39,9.61,-0.04,0.00,-0.01,-1.64,0.31,9.71,-0.02,0.02,-0.00,-1.17,4.19,8.78,0.01,0.02,-0.01,0.29,-0.11,0.96,0.73,-0.06,0.55,R
8.496,17,0,23,255,20,-1.53,-3.03,9.53,-0.02,0.02,-0.01,-2.40,0.57,9.58,0.00,0.04,-0.00,-1.72,1.43,9.54,-0.04,0.02,-0.00,-1.65,0.28,9.77,-0.01,0.02,-0.00,-1.26,4.32,8.98,0.02,0.02,-0.01,0.30,-0.11,0.96,0.00,0.12,0.67,R
8.547,17,0,21,255,19,-1.52,-2.94,9.41,0.02,0.03,-0.01,-2.42,0.51,9.60,-0.00,0.03,-0.00,-1.72,1.41,9.58,-0.02,0.01,-0.01,-1.59,0.42,9.76,-0.00,0.01,-0.00,-1.21,4.30,8.94,0.01,0.02,-0.01,0.28,-0.11,0.96,0.61,-0.12,0.24,R
8.598,19,0,21,255,19,-1.63,-2.81,9.50,0.03,0.00,0.00,-2.41,0.45,9.62,-0.01,0.03,0.00,-1.76,1.30,9.58,-0.04,0.01,0.01,-1.74,0.38,9.77,0.01,0.02,0.00,-1.19,4.44,8.92,0.01,0.02,-0.01,0.31,-0.11,0.96,0.43,0.06,0.24,R
8.651,19,0,21,255,18,-1.46,-2.90,9.47,0.01,0.02,-0.01,-2.40,0.48,9.64,-0.01,0.03,-0.00,-1.74,1.35,9.56,-0.03,0.01,-0.01,-1.65,0.42,9.77,0.01,0.02,-0.01,-1.21,4.32,8.97,0.00,0.01,-0.01,0.29,-0.10,0.96,-0.55,-0.18,-0.24,R
8.7,19,0,20,255,19,-1.53,-2.90,9.46,-0.01,0.02,0.00,-2.39,0.51,9.56,0.02,0.01,-0.01,-1.75,1.42,9.57,-0.02,0.00,-0.00,-1.61,0.39,9.73,0.00,0.01,-0.01,-1.24,4.36,8.97,-0.01,0.02,-0.00,0.30,-0.11,0.96,0.85,-0.67,-0.37,R
8.751,18,0,24,255,18,-1.60,-2.85,9.41,0.00,0.03,-0.01,-2.42,0.51,9.55,-0.01,0.01,-0.00,-1.66,1.34,9.59,-0.03,0.01,-0.01,-1.61,0.34,9.73,-0.01,0.01,-0.01,-1.21,4.31,8.96,0.00,0.02,-0.01,0.30,-0.10,0.96,1.04,-0.43,-0.67,R
8.802,18,0,20,255,19,-1.66,-2.86,9.44,0.03,0.04,-0.02,-2.35,0.59,9.70,0.01,0.03,-0.01,-1.74,1.37,9.55,-0.01,0.00,-0.00,-1.65,0.40,9.74,0.01,0.02,0.00,-1.13,4.33,8.98,0.00,0.02,-0.00,0.29,-0.11,0.96,1.04,-0.12,-0.67,R
8.853,19,0,21,255,20,-1.61,-2.92,9.42,0.01,0.03,-0.02,-2.36,0.49,9.63,0.00,0.01,0.00,-1.71,1.36,9.55,-0.02,0.00,-0.00,-1.65,0.40,9.71,-0.00,0.01,-0.00,-1.21,4.35,8.93,-0.00,0.02,-0.00,0.29,-0.11,0.96,0.49,-0.73,-1.16,R
8.904,22,0,23,255,18,-1.64,-3.01,9.48,0.02,0.01,-0.01,-2.36,0.39,9.56,-0.03,0.02,0.01,-1.75,1.33,9.59,-0.04,0.01,0.01,-1.62,0.41,9.79,0.01,0.02,0.00,-1.18,4.38,8.93,0.01,0.02,-0.01,0.29,-0.10,0.96,0.92,-0.06,-0.49,R
8.955,20,0,24,255,19,-1.59,-2.95,9.51,-0.00,0.00,0.01,-2.44,0.41,9.56,0.02,0.04,0.01,-1.76,1.36,9.58,0.01,0.02,0.01,-1.67,0.42,9.66,0.02,0.02,0.00,-1.15,4.38,8.92,0.02,0.02,0.00,0.30,-0.11,0.96,0.37,0.31,-0.37,R
9.007,19,0,20,255,20,-1.63,-2.78,9.53,-0.01,0.02,-0.01,-2.42,0.52,9.53,0.04,0.03,-0.00,-1.77,1.44,9.56,-0.02,-0.00,-0.00,-1.67,0.43,9.72,-0.01,0.01,0.01,-1.19,4.48,8.96,-0.01,0.02,-0.00,0.29,-0.10,0.96,0.37,-0.18,-0.49,R
9.058,18,0,23,255,18,-1.65,-2.89,9.46,0.01,0.02,-0.01,-2.43,0.51,9.60,-0.00,0.03,-0.00,-1.78,1.50,9.56,-0.01,0.01,-0.00,-1.62,0.42,9.75,0.01,0.01,0.00,-1.15,4.32,8.94,0.01,0.02,-0.00,0.29,-0.10,0.96,-0.43,-0.06,-0.67,R
9.108,20,0,21,255,19,-1.58,-2.95,9.39,-0.01,0.01,-0.01,-2.49,0.46,9.19,0.01,0.09,0.02,-1.84,1.57,9.53,0.02,0.02,-0.00,-1.65,0.50,9.69,0.01,0.01,0.01,-1.20,4.32,8.96,0.02,0.02,0.00,0.29,-0.10,0.96,-0.24,0.37,-0.24,R
9.16,18,0,20,255,17,-1.61,-2.84,9.46,-0.00,0.02,0.00,-2.47,0.61,9.55,0.01,0.04,0.00,-1.79,1.45,9.55,-0.03,0.01,0.00,-1.59,0.47,9.76,0.01,0.02,0.00,-1.16,4.32,8.91,0.02,0.03,-0.00,0.29,-0.10,0.96,0.49,0.49,0.12,R
9.21,19,0,21,255,20,-1.65,-2.94,9.40,0.00,0.01,-0.01,-2.45,0.56,9.50,-0.02,0.03,0.01,-1.72,1.51,9.58,-0.04,0.01,0.00,-1.60,0.37,9.73,-0.03,0.02,0.01,-1.20,4.37,8.92,0.01,0.02,-0.01,0.29,-0.10,0.96,0.98,0.61,1.10,R
9.261,18,0,23,255,19,-1.60,-2.93,9.44,-0.02,0.01,0.01,-2.49,0.48,9.57,-0.04,0.05,0.01,-1.77,1.44,9.60,-0.02,0.03,0.00,-1.70,0.47,9.72,0.01,0.03,0.00,-1.23,4.31,8.95,0.01,0.02,-0.01,0.29,-0.10,0.96,0.31,0.73,1.16,R
9.312,19,0,21,255,19,-1.56,-2.95,9.43,0.01,0.01,0.00,-2.49,0.50,9.55,-0.02,0.04,0.01,-1.74,1.50,9.52,-0.01,0.02,0.00,-1.66,0.47,9.72,0.00,0.02,0.00,-1.16,4.39,8.96,-0.00,0.02,-0.00,0.30,-0.10,0.96,0.06,0.31,0.92,R
9.363,20,0,23,255,20,-1.67,-2.87,9.43,-0.04,0.01,0.01,-2.45,0.58,9.56,-0.03,0.03,0.00,-1.79,1.42,9.58,-0.05,0.01,0.01,-1.64,0.34,9.72,-0.01,0.03,0.01,-1.20,4.31,8.99,0.03,0.02,-0.01,0.29,-0.10,0.96,0.18,0.67,0.85,R
9.414,20,0,20,255,21,-1.57,-2.89,9.45,0.00,0.01,-0.00,-2.45,0.48,9.62,0.00,0.04,0.00,-1.80,1.42,9.62,-0.03,0.02,0.01,-1.67,0.43,9.77,0.01,0.02,0.00,-1.22,4.30,8.94,0.01,0.02,0.00,0.30,-0.10,0.96,-0.06,0.55,0.79,R
9.466,19,1,20,255,20,-1.55,-2.91,9.46,-0.01,0.01,-0.01,-2.44,0.57,9.52,0.01,0.04,0.00,-1.79,1.49,9.58,-0.02,0.01,0.00,-1.64,0.46,9.75,0.00,0.02,0.00,-1.17,4.28,8.94,0.02,0.02,-0.00,0.30,-0.10,0.96,-0.12,0.06,0.61,R
9.516,17,0,20,255,21,-1.60,-2.90,9.46,0.01,0.02,-0.01,-2.49,0.52,9.62,-0.02,0.03,0.00,-1.72,1.43,9.54,-0.03,0.01,0.00,-1.64,0.40,9.72,0.01,0.02,0.00,-1.23,4.31,8.98,0.04,0.02,-0.01,0.30,-0.10,0.96,0.24,0.12,0.37,R
9.568,20,0,21,255,21,-1.58,-2.98,9.47,-0.01,0.01,0.00,-2.45,0.48,9.52,-0.02,0.03,0.00,-1.74,1.45,9.50,-0.01,0.01,0.00,-1.68,0.45,9.74,0.01,0.02,-0.00,-1.27,4.37,8.91,-0.01,0.01,-0.00,0.30,-0.10,0.96,0.43,0.24,0.55,R
9.618,17,0,21,255,21,-1.69,-2.92,9.43,-0.03,0.00,-0.00,-2.49,0.50,9.54,0.01,0.02,0.00,-1.74,1.37,9.51,-0.03,0.01,0.00,-1.70,0.45,9.73,0.01,0.02,-0.00,-1.19,4.39,8.94,0.01,0.02,-0.00,0.29,-0.10,0.96,0.18,-0.18,0.73,R
9.669,19,0,21,255,20,0.01,-1.87,9.26,-0.05,0.06,-0.51,-2.47,0.66,9.62,-0.02,0.02,0.00,-1.76,1.48,9.52,-0.05,0.01,0.00,-1.68,0.39,9.76,-0.01,0.02,0.00,-1.19,4.29,9.03,0.03,0.03,-0.01,0.29,-0.10,0.96,0.18,0.12,0.79,R
9.72,19,0,23,255,21,-1.57,-2.97,9.46,0.01,0.01,-0.01,-2.52,0.56,9.60,0.00,0.04,0.01,-1.80,1.46,9.54,-0.00,0.01,0.01,-1.69,0.47,9.72,0.00,0.01,0.00,-1.17,4.42,8.94,0.00,0.02,0.00,0.30,-0.10,0.96,-0.24,0.24,0.43,R
9.772,19,0,21,255,20,-1.63,-2.99,9.40,-0.03,0.01,-0.01,-2.53,0.51,9.52,-0.02,0.03,-0.00,-1.78,1.45,9.55,-0.04,0.01,-0.00,-1.67,0.47,9.73,-0.02,0.02,-0.00,-1.14,4.33,8.95,0.01,0.02,-0.01,0.30,-0.10,0.96,0.18,-0.12,0.31,R
9.822,19,0,21,255,20,-1.58,-2.96,9.45,-0.01,0.02,-0.01,-2.48,0.64,9.53,0.01,0.03,-0.01,-1.74,1.48,9.54,-0.02,0.01,-0.00,-1.66,0.44,9.72,0.00,0.01,-0.00,-1.18,4.38,9.03,0.01,0.02,-0.00,0.30,-0.10,0.96,-0.06,0.06,-0.18,R
9.873,19,0,24,255,18,-1.76,-2.79,9.36,-0.00,0.02,-0.01,-2.58,0.65,9.54,-0.03,0.03,-0.00,-1.83,1.49,9.58,-0.07,0.01,0.01,-1.64,0.35,9.73,-0.02,0.02,-0.01,-1.18,4.39,8.95,-0.01,0.02,-0.00,0.30,-0.09,0.96,-0.06,-0.12,0.06,R
9.924,17,0,20,255,21,-1.48,-3.07,9.35,-0.02,0.02,-0.01,-2.67,0.46,9.58,0.01,0.06,0.01,-1.81,1.46,9.56,-0.03,0.00,-0.00,-1.67,0.45,9.81,0.00,0.01,0.00,-1.18,4.37,8.96,0.01,0.02,-0.01,0.30,-0.10,0.96,0.43,-0.43,-0.37,R
9.975,19,0,21,255,20,-1.58,-2.90,9.46,0.05,0.02,-0.01,-2.51,0.60,9.57,-0.01,0.03,0.01,-1.82,1.42,9.52,-0.01,0.02,0.01,-1.68,0.44,9.71,0.02,0.01,0.00,-1.17,4.38,8.95,0.02,0.03,0.00,0.30,-0.09,0.96,0.55,0.31,-0.55,R
10.026,19,0,21,255,20,-1.63,-2.96,9.48,-0.01,0.03,-0.02,-2.50,0.68,9.50,-0.02,0.01,0.00,-1.79,1.50,9.59,-0.05,-0.00,-0.00,-1.66,0.47,9.74,-0.01,0.02,-0.01,-1.16,4.30,8.94,-0.00,0.02,-0.01,0.29,-0.09,0.96,0.18,-1.10,-0.67,R
10.078,17,0,21,255,21,-1.62,-3.05,9.45,0.00,0.02,-0.00,-2.59,0.60,9.48,-0.02,0.03,0.01,-1.80,1.48,9.59,-0.02,0.01,-0.00,-1.72,0.52,9.74,0.00,0.02,0.00,-1.21,4.36,8.94,-0.01,0.02,0.00,0.30,-0.10,0.96,1.22,0.06,-0.24,R
10.13,20,0,23,255,21,-1.57,-2.98,9.45,0.04,0.02,-0.02,-2.53,0.60,9.48,0.02,0.02,0.00,-1.80,1.47,9.58,-0.04,-0.01,0.01,-1.64,0.40,9.74,-0.00,0.01,0.00,-1.15,4.41,8.97,0.01,0.02,-0.01,0.30,-0.09,0.96,0.79,-0.31,-1.10,R
10.179,21,2,23,255,20,-1.55,-3.06,9.41,0.01,0.02,-0.01,-2.52,0.57,9.48,0.01,0.02,0.01,-1.83,1.54,9.53,-0.01,0.00,-0.00,-1.70,0.51,9.73,0.01,0.01,-0.00,-1.22,4.34,8.91,0.01,0.03,-0.00,0.30,-0.10,0.96,0.06,-0.12,-1.28,R
10.23,19,0,23,255,19,-1.59,-3.02,9.44,0.03,0.03,-0.02,-2.49,0.63,9.53,0.01,0.04,-0.00,-1.74,1.49,9.43,-0.01,0.02,-0.00,-1.91,-0.39,9.53,-0.21,0.05,0.02,-1.33,4.53,9.05,0.01,0.02,0.00,0.29,-0.10,0.96,-0.37,-0.24,-0.67,R
10.281,20,1,21,255,21,-1.58,-2.94,9.46,-0.02,0.02,-0.01,-3.18,0.37,9.48,0.01,0.09,0.06,-1.76,1.58,9.54,-0.01,0.01,-0.00,-1.67,0.52,9.74,0.00,0.02,0.01,-1.18,4.44,8.92,0.01,0.03,0.00,0.30,-0.10,0.96,-0.43,-0.55,-0.98,R
10.333,21,1,26,255,21,-1.54,-2.94,9.45,-0.01,0.03,-0.00,-2.49,0.61,9.56,0.02,0.05,0.02,-1.82,1.44,9.55,-0.03,0.02,0.00,-1.69,0.48,9.71,-0.01,0.02,-0.01,-1.23,4.37,8.92,-0.01,0.03,-0.00,0.30,-0.10,0.96,-0.98,-0.24,-1.22,R
10.383,21,0,23,255,20,-1.53,-3.10,9.36,0.05,0.05,-0.04,-2.50,0.55,9.48,0.02,0.06,0.01,-1.77,1.42,9.56,-0.01,0.02,0.00,-1.65,0.50,9.75,0.02,0.02,-0.00,-1.15,4.38,8.92,-0.03,0.02,0.00,0.29,-0.09,0.96,-1.16,0.06,-1.22,R
10.435,20,1,21,255,21,-1.66,-2.89,9.40,-0.03,0.06,-0.01,-2.66,0.56,9.52,0.02,0.10,0.01,-1.83,1.46,9.48,-0.01,0.03,0.00,-1.69,0.52,9.71,0.01,0.09,-0.00,-1.24,4.41,8.92,0.03,0.02,-0.00,0.29,-0.10,0.96,-1.28,-0.18,-1.04,R
10.486,20,4,21,255,19,-1.57,-3.11,9.39,-0.02,0.02,0.00,-2.64,0.58,9.44,0.05,0.08,0.03,-1.87,1.53,9.53,0.00,0.04,0.00,-1.74,0.52,9.73,0.03,0.03,0.00,-1.23,4.36,8.93,0.02,0.03,0.00,0.29,-0.09,0.96,-2.87,0.12,-0.73,R
10.536,22,5,24,255,21,-1.65,-3.03,9.38,0.01,0.03,-0.00,-2.63,0.65,9.50,0.04,0.05,0.01,-1.87,1.50,9.50,-0.01,0.01,0.01,-1.68,0.53,9.70,0.01,0.03,0.00,-1.21,4.37,8.90,-0.02,0.02,0.00,0.30,-0.08,0.96,-2.38,0.43,-0.79,R
10.587,22,6,24,255,22,-1.68,-2.96,9.44,-0.02,0.03,-0.01,-2.60,0.70,9.49,-0.00,0.06,0.00,-1.84,1.52,9.49,-0.01,0.03,0.00,-1.70,0.53,9.72,0.00,0.04,-0.00,-1.22,4.34,8.93,-0.01,0.03,0.00,0.29,-0.09,0.96,-2.01,0.24,-0.18,R
10.638,20,5,21,255,21,-1.69,-2.99,9.38,-0.04,0.02,-0.01,-2.60,0.68,9.60,0.01,0.06,-0.01,-1.86,1.41,9.52,-0.03,0.02,0.00,-1.76,0.55,9.66,-0.01,0.04,-0.00,-1.23,4.36,8.94,0.01,0.03,-0.01,0.29,-0.08,0.96,-2.01,-0.43,0.24,R
10.689,23,8,25,255,22,-1.69,-3.14,9.41,-0.06,0.02,-0.01,-2.70,0.60,9.49,-0.02,0.05,-0.00,-1.90,1.51,9.49,-0.04,0.02,0.00,-1.80,0.53,9.73,0.01,0.04,0.00,-1.30,4.30,8.96,-0.01,0.03,-0.00,0.30,-0.08,0.96,-1.22,-0.06,0.06,R
10.74,24,9,26,255,21,-1.69,-3.03,9.35,-0.03,0.02,-0.02,-2.67,0.67,9.48,-0.02,0.03,-0.01,-1.86,1.54,9.53,-0.03,0.00,-0.00,-1.72,0.50,9.73,-0.00,0.02,0.00,-1.20,4.30,8.99,0.02,0.02,-0.00,0.29,-0.08,0.97,-0.73,-0.12,-0.24,R
10.791,23,9,21,255,21,-1.59,-3.06,9.39,-0.00,0.01,-0.01,-2.71,0.67,9.48,0.01,0.04,-0.00,-1.88,1.54,9.52,-0.02,0.01,0.00,-1.73,0.52,9.71,0.01,0.01,0.00,-1.24,4.35,8.95,0.02,0.02,-0.00,0.30,-0.08,0.96,-0.79,0.18,-0.43,R
10.842,23,9,25,255,21,-1.79,-2.81,9.40,-0.02,0.01,-0.04,-2.69,0.73,9.47,-0.02,0.03,-0.01,-1.92,1.48,9.51,-0.05,-0.01,0.00,-1.77,0.48,9.72,-0.03,0.01,-0.00,-1.21,4.46,8.95,-0.01,0.01,-0.00,0.29,-0.07,0.97,0.79,-0.31,0.31,R
10.893,24,9,25,255,20,-1.71,-3.04,9.50,-0.04,0.00,-0.01,-2.71,0.70,9.48,0.02,0.02,-0.00,-1.86,1.55,9.54,-0.04,-0.01,0.00,-1.79,0.53,9.73,-0.01,0.01,-0.00,-1.23,4.35,8.94,0.01,0.03,-0.00,0.29,-0.08,0.96,0.06,-0.61,-0.12,R
10.945,21,7,24,255,21,-1.64,-3.05,9.38,-0.00,0.01,-0.02,-2.66,0.68,9.49,-0.02,0.01,-0.00,-1.87,1.53,9.52,-0.03,-0.00,-0.00,-1.78,0.52,9.65,-0.02,0.01,0.00,-1.22,4.29,8.94,0.02,0.02,-0.01,0.29,-0.07,0.96,1.04,-0.12,0.24,R
10.996,22,9,23,255,21,-1.65,-3.06,9.32,0.00,0.02,-0.01,-2.73,0.73,9.49,0.01,0.03,-0.01,-1.81,1.54,9.52,-0.04,-0.00,-0.00,-1.69,0.54,9.73,-0.03,0.01,-0.01,-1.19,4.44,8.92,-0.03,0.02,-0.01,0.30,-0.08,0.96,1.65,-0.61,0.61,R
11.046,21,9,25,255,21,-1.66,-3.22,9.34,-0.05,0.01,0.00,-2.67,0.61,9.49,-0.02,0.02,-0.00,-1.93,1.53,9.50,-0.04,-0.00,0.00,-1.78,0.50,9.70,-0.02,0.01,-0.00,-1.25,4.31,8.91,0.02,0.02,-0.00,0.29,-0.08,0.96,1.83,0.06,0.55,R
11.097,23,10,26,255,21,-1.66,-3.14,9.38,0.03,0.01,-0.01,-2.71,0.69,9.45,-0.01,0.02,0.00,-1.89,1.49,9.56,-0.02,0.00,0.00,-1.71,0.55,9.64,-0.01,0.01,0.00,-1.20,4.33,8.98,0.04,0.02,-0.01,0.29,-0.08,0.96,0.98,0.12,0.55,R
11.148,23,9,25,255,23,-1.69,-3.17,9.39,-0.03,0.00,-0.01,-2.65,0.60,9.48,-0.02,0.00,0.00,-1.86,1.46,9.55,-0.04,-0.01,0.00,-1.74,0.51,9.68,-0.01,0.01,0.00,-1.21,4.35,8.98,-0.01,0.02,-0.00,0.30,-0.08,0.96,0.98,-0.31,0.43,R
11.199,23,11,24,255,22,-1.62,-3.16,9.38,-0.01,0.01,-0.01,-2.71,0.68,9.53,-0.00,0.02,-0.00,-1.84,1.43,9.52,-0.03,0.00,-0.01,-1.76,0.48,9.70,-0.01,0.01,0.00,-1.18,4.34,8.91,0.02,0.02,-0.00,0.29,-0.08,0.96,0.55,-0.37,0.31,R
11.25,24,9,24,255,21,-1.72,-3.13,9.28,-0.01,0.01,-0.02,-2.69,0.80,9.46,0.00,-0.01,-0.00,-1.88,1.44,9.54,-0.04,-0.02,0.00,-1.70,0.54,9.71,-0.02,-0.00,-0.00,-1.19,4.34,8.90,0.01,0.03,-0.00,0.29,-0.08,0.96,1.71,-0.85,0.12,R
11.302,22,8,25,255,21,-1.68,-3.15,9.32,-0.02,0.01,-0.01,-2.67,0.73,9.47,0.00,0.01,0.00,-1.85,1.54,9.51,-0.03,-0.01,0.00,-1.79,0.53,9.74,-0.02,0.00,-0.00,-1.13,4.68,8.84,0.05,0.02,-0.00,0.29,-0.08,0.96,1.16,-0.18,0.49,R
11.352,23,9,24,255,22,-1.58,-3.13,9.35,-0.00,0.01,-0.01,-2.62,0.69,9.50,0.08,-0.05,0.00,-1.86,1.39,9.61,-0.02,-0.09,0.02,-1.79,0.34,9.70,0.01,-0.05,0.02,-1.24,4.44,8.94,0.00,0.05,0.08,0.29,-0.08,0.97,5.25,0.98,-1.46,R
11.403,21,10,25,255,21,-1.65,-3.12,9.43,0.07,0.04,0.00,-2.51,0.87,9.56,0.15,-0.12,0.00,-1.70,1.42,9.56,-0.05,-0.14,0.04,-1.68,0.36,9.70,-0.02,-0.07,0.03,-1.16,4.22,8.98,-0.07,0.03,0.11,0.28,-0.09,0.97,8.24,0.79,-2.69,R
11.454,23,15,26,255,19,-1.45,-3.16,9.50,0.18,-0.08,0.00,-2.60,0.73,9.55,0.31,0.05,0.10,-2.53,1.02,9.74,0.23,-0.07,-0.22,-1.70,0.20,9.90,0.02,-0.07,0.12,-1.16,4.38,8.84,0.17,-0.02,0.13,0.31,-0.09,0.97,7.93,2.26,-9.64,R
11.506,20,23,26,255,19,-1.46,-3.07,9.32,0.15,-0.01,-0.13,-2.48,1.06,9.48,0.20,0.06,0.03,-1.88,1.38,9.62,-0.01,0.01,0.07,-1.51,-0.45,9.73,0.23,-0.08,0.21,-1.25,3.88,8.95,0.68,-0.16,0.29,0.27,-0.11,0.97,8.06,2.08,-13.31,R
11.556,19,27,31,255,14,-1.04,-3.50,9.34,0.18,-0.01,-0.35,-2.34,1.36,9.72,0.20,-0.17,-0.13,-1.40,1.16,9.73,0.09,-0.11,0.08,-1.58,-0.23,9.61,0.48,-0.11,0.05,-0.80,4.43,8.66,0.48,-0.08,0.16,0.31,-0.10,0.93,9.83,3.11,-16.66,R
11.608,14,27,28,255,13,-1.61,-2.72,9.21,0.15,-0.23,-1.10,-2.91,1.84,9.21,0.92,-0.23,-0.68,-1.51,2.32,9.29,1.15,-0.36,-0.22,-1.38,1.64,9.73,0.83,-0.31,-0.24,-0.76,5.08,8.69,0.37,-0.16,-0.13,0.33,-0.10,0.99,9.03,-1.34,-17.94,R
11.659,10,24,23,255,12,-0.95,-3.00,9.46,0.26,0.13,-0.32,-2.11,0.37,9.41,0.01,-0.15,-0.35,-1.06,2.24,9.50,0.80,-0.54,-0.39,-1.46,2.01,9.55,0.75,-0.28,-0.40,-0.94,5.06,8.89,0.32,-0.28,-0.38,0.37,-0.13,0.88,11.35,24.23,-14.47,R
11.709,11,23,19,255,14,-0.16,-4.82,9.55,0.22,-0.03,-0.92,-2.01,-0.20,9.82,0.09,-0.21,-1.01,-0.50,1.34,9.68,0.09,-0.56,-0.79,-0.88,1.94,9.50,0.36,-0.19,-0.53,-0.62,4.61,8.88,-0.09,-0.32,-0.60,0.34,-0.11,0.94,-3.11,0.67,-23.80,R
11.76,9,22,19,255,14,-2.43,-0.37,10.16,-0.15,0.23,-0.61,-2.67,2.51,9.13,-0.20,-0.26,-0.93,-1.36,3.19,9.60,-0.31,-0.29,-0.65,-1.28,1.65,9.64,-0.06,-0.09,-0.47,-0.86,4.24,8.79,-0.32,-0.27,-0.47,0.25,-0.17,0.96,3.42,-3.60,-15.08,R
11.811,6,18,18,255,15,-1.44,-3.30,9.34,0.11,0.14,-0.34,-2.59,2.06,9.56,0.03,-0.05,-0.48,-1.38,2.84,9.48,-0.22,-0.13,-0.42,-1.29,1.92,9.55,0.01,-0.05,-0.34,-0.82,5.07,8.63,-0.11,-0.13,-0.34,0.27,-0.19,0.94,0.12,1.95,-10.86,R
11.862,8,17,18,255,18,-2.63,-1.16,9.88,-0.24,0.14,-0.27,-2.65,1.40,9.31,-0.12,0.03,-0.22,-1.36,2.51,9.44,-0.31,0.09,-0.11,-1.20,1.75,9.66,-0.18,0.08,-0.10,-0.65,4.66,8.82,-0.08,0.03,-0.08,0.21,-0.19,0.97,-10.62,-3.11,-5.43,R
11.913,7,19,20,255,16,-1.18,-2.86,9.52,-0.09,-0.13,0.01,-2.24,0.86,9.50,0.04,0.01,0.01,-1.04,2.22,9.47,-0.24,0.15,0.07,-1.16,1.79,9.62,-0.07,0.09,0.04,-0.84,4.75,8.74,0.06,0.04,0.04,0.34,-0.12,0.98,-5.98,4.70,0.06,R
11.964,7,19,21,255,18,-1.07,-2.65,9.52,-0.03,0.02,0.00,-2.19,1.12,9.50,-0.07,0.04,-0.02,-1.39,1.93,9.68,-0.35,0.17,0.01,-1.27,1.67,9.64,-0.22,0.08,0.00,-0.94,4.87,8.77,-0.12,0.04,-0.04,0.31,-0.15,0.95,1.77,-0.92,0.98,R
12.015,7,18,23,255,14,-1.24,-2.87,9.47,-0.09,0.00,0.00,-2.47,1.01,9.68,-0.05,0.04,-0.03,-1.04,1.80,9.61,-0.23,0.08,0.00,-1.34,1.40,9.57,-0.19,0.09,0.01,-0.93,4.64,8.83,-0.05,0.03,-0.01,0.30,-0.15,0.94,-0.31,-0.12,2.08,R
12.068,7,17,25,255,16,-1.09,-2.84,9.54,-0.02,0.02,-0.02,-2.24,1.07,9.57,-0.02,0.02,-0.01,-1.15,1.73,9.54,-0.16,0.07,0.02,-1.36,1.47,9.68,-0.13,0.06,0.02,-0.93,4.66,8.87,-0.04,0.03,-0.01,0.32,-0.13,0.96,-0.61,0.55,0.49,R
12.118,5,16,26,255,16,-1.03,-2.92,9.50,-0.02,0.01,-0.01,-2.31,0.98,9.56,-0.04,0.04,-0.02,-1.26,1.69,9.58,-0.13,0.04,-0.00,-1.37,1.33,9.71,-0.09,0.05,-0.01,-0.92,4.73,8.77,-0.08,0.03,-0.02,0.30,-0.15,0.95,0.49,0.18,0.61,R
12.169,7,15,24,255,17,-1.33,-3.19,9.56,-0.09,0.04,-0.00,-2.31,1.05,9.51,-0.05,0.02,-0.02,-1.42,1.67,9.60,-0.10,0.04,0.01,-1.45,1.11,9.51,-0.02,0.05,0.02,-0.98,4.67,8.89,0.06,0.03,0.02,0.30,-0.15,0.95,-1.71,1.53,1.59,R
12.219,4,19,26,255,18,-1.08,-3.04,9.50,0.00,0.03,-0.01,-2.24,0.92,9.58,-0.00,0.02,0.00,-1.27,1.74,9.66,-0.02,0.01,0.01,-1.39,1.35,9.71,-0.01,0.02,0.02,-0.96,4.54,8.80,-0.01,0.03,0.02,0.32,-0.14,0.95,-0.31,1.65,0.37,R
12.27,7,13,24,255,16,-1.12,-2.92,9.45,0.00,0.01,-0.00,-2.23,1.08,9.51,-0.03,0.02,0.00,-1.24,1.84,9.57,-0.07,0.02,0.00,-1.40,1.26,9.73,-0.04,0.02,0.00,-0.89,4.67,8.85,-0.01,0.02,-0.01,0.31,-0.14,0.95,-0.55,-0.12,0.31,R
12.321,5,15,24,255,16,-1.13,-3.10,9.50,-0.03,0.01,-0.01,-2.25,1.02,9.59,-0.01,0.02,-0.00,-1.28,1.74,9.59,-0.05,0.02,0.00,-1.47,1.38,9.70,-0.03,0.03,0.00,-1.00,4.64,8.90,-0.01,0.02,-0.02,0.32,-0.14,0.95,-1.53,0.43,-0.43,R
12.372,5,16,23,255,16,-1.12,-3.04,9.48,-0.01,0.03,-0.01,-2.34,0.99,9.56,-0.02,0.03,-0.01,-1.34,1.72,9.59,-0.06,0.00,0.00,-1.50,1.22,9.67,-0.04,0.02,0.00,-0.90,4.55,8.84,0.01,0.02,-0.01,0.31,-0.14,0.95,-0.49,0.00,-0.18,R
12.423,6,17,23,255,15,-1.23,-3.05,9.51,-0.00,0.01,-0.00,-2.31,1.12,9.62,0.00,0.02,-0.00,-1.30,1.81,9.54,-0.05,0.01,0.00,-1.42,1.36,9.68,-0.03,0.02,0.00,-0.91,4.55,8.82,-0.02,0.02,-0.01,0.32,-0.14,0.95,1.77,0.49,0.61,R
12.474,6,15,23,255,16,-1.18,-3.11,9.49,-0.01,0.00,-0.00,-2.24,0.99,9.55,-0.01,0.04,0.00,-1.30,1.70,9.59,-0.03,0.03,0.01,-1.36,1.22,9.70,0.01,0.03,0.01,-0.94,4.53,8.85,0.04,0.04,0.00,0.31,-0.14,0.95,-0.92,0.98,0.31,R
12.525,7,16,23,255,18,-1.25,-3.13,9.37,-0.01,0.03,0.01,-2.38,1.09,9.50,0.01,0.06,0.00,-1.36,1.75,9.53,-0.00,0.03,0.01,-1.46,1.31,9.72,0.00,0.03,0.02,-0.90,4.56,8.84,0.03,0.04,0.02,0.31,-0.13,0.95,-3.60,1.40,0.49,R
12.576,8,17,25,255,17,-1.14,-3.01,9.54,-0.03,0.01,0.07,-2.21,0.78,9.59,-0.02,0.07,0.02,-1.35,1.59,9.56,0.04,0.05,0.02,-1.48,1.39,9.67,0.08,0.04,0.02,-0.95,4.65,8.78,0.09,0.05,0.01,0.31,-0.13,0.95,-0.92,2.32,2.32,R
12.627,7,16,25,255,17,-1.40,-2.86,9.57,0.03,-0.01,0.08,-2.37,1.13,9.82,0.01,0.08,-0.04,-1.34,1.56,9.59,0.04,0.11,0.01,-1.43,1.35,9.63,0.13,0.10,-0.01,-0.98,4.75,8.77,0.10,0.09,0.02,0.31,-0.13,0.96,-5.68,4.09,3.17,R
12.678,8,16,26,255,18,-1.71,-2.94,9.80,0.23,-0.09,0.23,-2.89,1.36,9.39,-0.08,0.22,-0.15,-1.64,1.64,9.64,0.23,0.32,0.00,-1.64,1.20,9.65,0.30,0.19,0.03,-0.96,4.39,8.96,0.28,0.20,0.03,0.27,-0.14,0.97,-12.27,10.01,6.65,R
12.729,8,21,31,255,24,-1.99,-2.92,13.10,0.72,-0.84,0.29,-4.11,2.73,15.16,0.06,-1.04,0.75,-1.98,1.62,9.80,0.34,0.77,0.01,-1.84,1.57,9.89,0.65,0.61,0.07,-1.01,4.48,8.81,0.88,0.15,-0.04,0.29,-0.14,1.00,-24.05,22.22,16.11,R
12.78,7,18,54,255,27,-1.11,-4.19,11.58,0.58,-0.98,0.69,-2.13,-0.39,8.73,0.77,-0.70,0.77,-3.51,2.00,9.39,1.25,2.26,0.21,-2.36,1.74,9.56,1.56,1.45,0.15,-1.27,5.42,8.12,2.11,0.08,0.10,0.34,-0.11,0.98,-40.77,61.34,23.50,R
12.832,12,21,95,255,28,-0.72,-2.20,9.78,0.29,-0.26,-0.54,-2.55,2.40,10.93,1.23,-0.11,0.68,-6.77,5.42,11.36,2.31,2.32,0.64,-3.69,5.57,7.70,2.39,2.26,0.24,-1.67,10.89,3.73,3.72,1.93,1.38,0.49,-0.03,0.91,-63.54,83.25,34.18,R
12.882,40,48,131,255,50,-1.47,-1.83,12.28,0.95,-0.68,-0.19,-2.00,2.65,8.66,1.49,0.19,1.20,-5.27,4.56,6.90,1.26,1.07,1.53,-4.57,2.85,9.80,1.99,0.89,1.83,-2.82,9.49,7.02,3.61,1.11,0.45,0.63,0.04,0.83,-29.79,112.43,30.58,R
12.933,60,68,146,255,64,0.17,-0.98,9.06,1.57,-0.90,-0.01,-1.09,6.17,7.24,1.53,0.28,1.23,-4.96,8.80,2.30,1.52,2.56,1.72,-4.19,10.02,5.79,1.92,1.65,1.21,-1.00,10.19,-0.87,2.00,0.97,0.55,0.77,0.10,0.85,-9.22,92.22,38.57,R
12.985,69,80,162,255,72,0.15,-0.03,12.60,1.97,-0.90,0.70,-1.44,5.19,10.24,1.97,0.56,1.70,-5.32,7.32,6.87,1.55,1.55,2.43,-3.95,6.62,5.81,2.30,1.51,1.93,-2.52,9.80,3.89,3.12,2.54,0.06,0.69,0.08,0.65,15.01,152.59,40.34,R
13.035,77,93,169,255,84,1.45,0.49,8.15,2.24,-0.88,0.62,-0.16,5.59,6.83,2.06,0.25,1.80,-3.48,7.64,4.81,1.41,1.19,2.15,-3.38,7.01,5.07,1.73,1.43,1.54,-1.82,9.27,1.28,1.97,1.79,0.39,0.85,0.15,0.61,14.95,128.30,38.27,R
13.087,81,99,168,255,94,1.00,0.42,11.47,2.33,-0.72,1.05,0.26,5.30,6.96,2.13,0.31,1.96,-3.15,6.60,3.78,1.65,1.30,2.22,-2.64,7.49,2.08,2.21,1.98,1.59,-2.08,7.43,-3.48,2.91,3.18,-0.34,0.72,0.16,0.48,48.89,161.50,32.04,R
13.138,85,105,170,255,116,2.28,1.60,9.17,3.05,-0.58,1.13,-0.21,7.83,7.53,2.82,0.62,2.32,-3.26,10.71,2.99,2.47,2.32,2.85,-3.53,11.48,2.27,3.02,3.11,1.94,-3.62,12.89,-1.18,3.59,4.33,-0.46,0.85,0.13,0.39,50.90,197.69,28.26,R
13.189,90,116,171,255,136,3.20,3.26,7.21,3.17,-0.07,1.16,1.27,6.71,4.73,2.93,0.79,2.51,-1.08,9.07,0.60,2.22,1.94,2.77,-2.81,8.94,-0.11,2.51,2.58,1.89,-3.36,10.05,-0.76,2.91,2.99,0.19,0.96,0.14,0.20,66.71,192.14,32.78,R
13.24,99,132,176,255,141,2.43,5.23,6.40,3.18,-0.10,1.24,1.34,9.20,4.36,2.61,0.74,2.31,-1.02,10.23,0.76,1.73,2.57,2.53,-1.60,8.99,-1.45,2.33,3.21,1.63,-0.82,5.19,-7.52,2.98,3.49,-1.20,0.92,0.18,0.04,56.52,175.60,28.81,R
13.29,111,143,186,255,146,3.78,3.40,5.13,2.88,0.66,1.38,2.79,8.15,1.86,2.34,2.07,3.10,-0.58,9.63,-0.58,1.91,3.17,3.03,-2.47,8.99,-1.57,2.90,3.45,2.45,-2.62,10.74,-4.05,2.77,4.49,0.03,0.88,0.18,-0.10,56.27,198.18,19.29,R
13.341,128,166,191,255,153,3.20,6.54,5.42,2.85,0.53,1.49,3.73,7.82,2.65,2.27,1.64,2.53,2.27,9.44,-0.74,1.69,2.41,2.31,0.58,9.01,-2.77,1.81,2.56,1.63,0.68,6.85,-7.81,1.91,3.05,-0.10,0.94,0.19,-0.14,56.52,160.46,15.69,R
13.393,134,177,195,255,157,3.29,6.27,4.84,2.47,0.63,1.65,3.14,8.52,2.82,1.92,1.34,2.61,2.42,8.98,-1.84,1.18,2.44,2.60,2.15,7.75,-5.16,1.99,3.61,2.30,-0.35,6.39,-6.26,2.58,4.36,-0.77,0.85,0.22,-0.34,60.42,157.90,4.82,R
13.443,143,186,200,255,164,3.62,7.77,4.32,2.34,0.72,1.77,5.07,9.28,1.99,1.82,1.43,2.63,4.56,10.08,-1.81,1.19,1.87,2.36,2.47,9.05,-3.43,1.53,2.49,1.93,2.10,6.56,-5.24,1.76,2.96,0.24,0.81,0.26,-0.45,45.41,144.78,6.29,R
13.495,152,193,200,255,169,5.25,5.89,3.19,1.91,0.98,1.42,5.86,6.30,2.15,1.11,2.17,2.35,3.45,8.21,0.02,1.03,4.02,1.90,4.17,7.70,-4.27,1.34,4.80,1.66,3.35,3.65,-7.55,1.63,7.07,-0.12,0.80,0.26,-0.53,42.42,120.91,6.47,R
13.545,156,200,211,255,190,5.20,8.61,2.69,1.43,0.62,1.89,7.07,7.58,1.36,0.74,0.75,2.25,7.54,7.38,-1.59,0.24,2.44,1.78,6.18,8.96,-3.01,0.93,3.42,1.44,7.81,4.38,-6.23,1.35,4.06,0.09,0.71,0.32,-0.64,54.50,100.89,10.25,R
13.596,161,204,214,255,197,5.44,5.81,2.28,1.49,0.82,1.90,8.72,6.32,0.58,0.87,1.98,2.76,6.63,6.83,0.69,0.47,3.49,2.42,4.64,5.87,-0.11,0.79,3.22,2.06,4.07,3.89,-1.23,1.29,3.30,0.67,0.69,0.35,-0.74,58.23,128.23,11.05,R
13.648,179,213,220,255,203,8.21,6.90,1.43,0.79,0.99,1.45,8.32,3.85,2.11,0.24,1.58,1.80,9.62,3.80,0.72,0.07,2.40,1.55,8.82,4.14,-1.55,0.47,2.54,1.14,11.06,2.15,-4.98,0.84,2.80,-0.23,0.52,0.40,-0.70,42.48,70.07,20.26,R
13.698,185,218,225,255,204,7.31,5.51,2.84,0.96,0.77,1.51,8.47,2.57,2.50,0.44,1.45,2.03,7.89,3.94,2.11,0.24,2.37,1.84,6.50,5.67,1.23,0.73,2.42,1.71,6.79,4.16,-0.91,0.77,2.60,0.55,0.54,0.41,-0.77,44.13,92.29,5.55,R
13.749,197,224,226,255,211,7.09,5.98,3.27,0.60,1.40,1.02,7.29,2.15,4.53,0.21,2.38,1.61,8.29,2.97,4.06,0.20,2.63,1.33,9.06,3.39,0.32,0.50,3.07,1.20,6.87,1.98,2.26,0.89,3.59,-0.08,0.39,0.44,-0.75,52.98,66.04,0.06,R
13.8,200,227,233,255,212,9.50,4.01,2.37,0.84,0.85,1.25,7.79,1.31,4.87,0.45,2.06,1.45,6.74,4.01,4.70,0.59,2.16,0.95,7.85,4.67,1.79,0.68,2.65,0.81,6.43,3.69,2.35,1.13,2.82,-0.11,0.55,0.44,-0.78,51.70,49.44,-17.70,R
13.851,204,228,236,255,218,5.91,6.27,4.96,0.58,1.39,0.60,6.22,4.08,6.22,0.39,2.61,1.00,6.66,6.20,5.40,0.36,2.70,0.75,8.45,5.68,2.56,0.48,3.23,0.78,7.45,3.79,3.51,0.92,3.26,-0.04,0.46,0.47,-0.78,43.82,41.44,-12.70,R
13.903,206,233,238,255,221,7.61,5.86,4.07,0.62,0.94,0.85,6.17,1.70,7.06,0.14,1.53,0.98,6.36,3.05,6.49,0.27,1.83,0.64,7.48,2.46,4.14,0.36,2.40,0.52,7.46,3.51,4.34,0.81,2.29,-0.24,0.47,0.47,-0.79,45.04,31.68,-7.02,R
13.953,206,235,246,255,222,7.01,6.06,3.69,0.57,0.58,0.66,5.61,3.93,7.27,0.14,1.33,0.96,5.55,4.72,6.31,0.22,1.65,0.57,7.71,4.77,4.01,0.41,1.82,0.45,8.64,4.87,3.62,0.58,1.93,-0.07,0.35,0.53,-0.80,45.04,32.96,-8.36,R
14.004,200,239,240,255,223,8.41,5.37,3.28,0.49,0.79,0.75,6.80,1.67,7.56,-0.13,1.96,0.89,6.34,2.78,7.24,0.02,1.50,0.50,8.01,3.59,4.88,0.18,1.70,0.41,6.05,4.30,5.57,0.49,1.93,-0.26,0.40,0.56,-0.75,45.96,27.71,-2.87,R
14.055,201,239,242,255,223,7.48,5.29,4.37,0.20,0.49,0.79,5.04,1.48,8.02,-0.01,0.98,0.81,6.90,3.09,7.03,0.10,1.15,0.32,7.98,4.11,5.24,0.14,1.32,0.22,7.62,4.43,4.75,0.51,1.19,-0.21,0.41,0.58,-0.74,47.91,20.81,1.22,R
14.107,200,240,242,255,222,7.71,3.61,4.35,0.50,0.37,0.79,4.75,2.80,8.28,-0.22,1.22,0.91,4.14,4.06,7.81,-0.14,1.41,0.45,6.06,3.74,5.97,0.01,1.91,0.30,5.88,3.78,4.66,0.29,2.43,-0.35,0.33,0.61,-0.73,51.88,32.10,3.60,R
14.157,199,240,243,255,224,7.69,5.01,4.15,0.03,0.39,0.87,5.09,1.12,8.42,-0.43,1.30,0.80,5.43,3.19,8.10,-0.14,1.47,0.29,7.51,4.24,6.54,-0.02,2.12,0.23,5.66,4.53,7.34,0.52,2.46,-0.39,0.27,0.70,-0.72,57.13,26.61,11.11,R
14.208,197,242,243,255,227,8.69,3.68,4.64,0.18,0.27,1.34,2.46,0.27,9.69,-0.52,1.41,0.99,3.09,2.38,9.16,-0.30,1.57,0.36,4.22,3.20,8.00,-0.17,1.56,0.26,3.27,5.48,7.41,0.22,1.37,-0.33,0.35,0.73,-0.70,59.63,40.34,16.36,R
14.259,199,241,244,255,225,8.75,3.23,4.38,0.11,0.58,1.11,4.53,-0.56,9.89,-0.59,1.87,0.61,5.11,1.88,9.52,-0.10,2.00,0.02,7.36,2.74,7.78,-0.07,2.55,-0.09,5.02,4.70,8.90,0.66,2.31,-0.63,0.25,0.81,-0.68,61.04,21.85,17.82,R
14.31,202,242,245,255,226,8.12,2.24,5.66,0.07,0.13,1.58,2.32,-1.20,10.30,-0.89,1.18,0.84,-0.49,2.87,10.74,-0.45,1.94,0.14,0.99,2.78,10.34,-0.27,1.96,0.09,1.02,7.46,9.19,0.33,1.49,-0.65,0.24,0.87,-0.63,80.38,36.32,29.24,R
14.361,202,240,245,255,225,8.67,2.05,4.48,-0.09,0.26,1.14,2.40,-2.04,9.61,-0.59,1.89,0.53,2.97,0.58,9.10,-0.28,1.89,-0.20,5.26,1.74,7.87,-0.20,2.28,-0.39,3.97,4.88,6.85,0.62,1.99,-0.93,0.09,0.87,-0.53,62.99,9.58,32.41,R
14.412,204,241,246,255,224,6.99,1.56,5.66,-0.21,-0.26,1.62,0.37,-1.68,9.47,-1.15,1.07,0.73,-0.57,2.67,8.84,-0.46,2.23,-0.11,-1.21,4.09,9.50,-0.39,2.29,-0.25,-1.03,7.34,7.84,0.25,1.74,-1.05,0.16,0.86,-0.48,85.39,30.09,39.31,R
14.463,200,242,246,255,222,7.74,0.06,3.87,-0.16,-0.20,1.60,2.84,-2.98,6.91,-1.13,1.36,0.66,2.09,0.21,7.76,-0.79,2.29,-0.15,3.46,0.35,5.56,-0.52,2.76,-0.35,1.48,2.31,2.81,0.51,2.79,-1.24,0.05,0.87,-0.36,83.74,31.31,42.91,R
14.514,201,248,244,255,222,9.27,-1.58,4.30,0.21,0.25,1.39,-0.60,-5.77,8.86,-0.62,1.29,0.85,-4.51,-0.45,8.82,-0.09,2.42,-0.10,-5.64,0.91,8.94,0.21,3.05,-0.56,-4.63,4.60,6.09,0.14,1.94,-1.87,0.09,0.82,-0.28,76.78,23.80,3.30,R
14.565,198,242,246,255,211,8.35,-1.22,5.05,0.19,0.57,0.67,-0.63,-3.41,8.99,0.05,1.65,0.67,-1.39,0.70,8.00,0.04,1.72,0.09,-2.26,2.67,7.26,0.58,2.44,-0.29,-1.66,6.62,7.05,0.59,1.33,-0.73,0.11,0.93,-0.29,34.73,14.04,-3.78,R
14.617,201,243,245,255,197,9.79,-0.40,3.76,0.26,1.24,0.72,-0.12,-3.30,10.16,0.01,2.06,0.88,-2.05,-0.82,9.14,0.66,3.05,0.01,-4.97,0.79,10.05,0.90,2.98,0.06,-5.69,6.01,7.62,1.51,1.53,-0.31,0.02,0.96,-0.34,107.12,15.81,-29.60,R
14.668,197,241,243,255,194,8.55,-1.81,5.09,0.40,1.19,0.53,-3.70,-2.23,9.07,0.35,1.82,0.80,-6.70,2.89,7.70,0.71,2.30,0.16,-4.71,4.47,5.81,0.94,2.20,0.22,-3.86,7.30,4.74,1.24,1.79,0.03,0.04,0.96,-0.20,83.01,9.58,-29.54,R
14.719,198,241,242,255,193,7.42,-0.06,5.32,0.09,1.30,0.53,-3.76,-2.47,8.00,0.13,1.93,0.80,-6.65,2.67,6.48,0.74,2.62,0.28,-6.04,4.10,6.04,0.97,2.41,0.49,-4.63,8.38,4.46,1.42,1.91,0.25,0.09,0.94,-0.16,93.44,21.18,-34.12,R
14.77,196,240,240,255,191,7.46,-0.81,6.37,0.58,0.62,0.41,-5.09,-1.87,8.11,0.24,1.48,0.72,-7.57,2.97,5.43,0.70,1.74,0.38,-5.92,4.70,5.03,1.09,1.64,0.62,-6.10,8.52,4.79,1.17,1.18,0.29,0.23,0.93,-0.05,69.40,11.47,-34.61,R
14.82,191,239,240,255,190,5.65,-0.74,6.99,0.14,0.82,0.10,-6.16,-0.97,7.28,0.16,1.52,0.36,-8.70,4.27,4.40,0.40,1.89,0.16,-8.00,4.98,4.62,0.39,1.86,0.12,-4.30,7.83,1.87,0.69,1.36,0.01,0.18,0.91,0.00,46.87,10.93,-18.49,R
14.872,191,241,236,255,189,6.39,-1.24,7.27,0.34,0.42,0.14,-5.70,-2.38,7.18,0.15,1.60,0.09,-8.79,3.25,4.51,0.37,1.04,0.17,-7.31,5.31,3.38,0.52,0.99,0.18,-5.74,9.00,2.32,0.62,0.82,0.12,0.22,0.96,0.05,32.78,5.74,-17.21,R
14.922,185,240,238,255,189,6.86,-0.71,7.72,0.16,-0.87,0.13,-6.32,-1.52,6.90,0.15,0.81,0.00,-8.58,3.84,4.31,0.35,0.44,0.15,-7.59,5.09,4.01,0.39,0.44,0.11,-5.25,7.22,2.37,0.48,0.35,0.18,0.22,0.97,0.08,17.94,-2.01,-12.70,R
14.973,177,239,236,255,190,6.98,-1.08,6.35,0.11,0.03,-0.10,-5.57,-1.63,7.02,0.20,1.34,0.09,-8.85,3.48,4.86,0.29,0.70,0.20,-8.48,5.47,4.49,0.37,0.49,0.12,-5.25,9.28,1.77,0.44,0.18,0.03,0.19,0.97,0.07,22.16,1.40,-15.81,R
15.024,173,241,236,255,191,7.02,-0.98,6.88,0.13,-0.18,0.04,-6.27,-2.64,6.97,0.07,0.73,0.10,-7.23,2.15,4.45,0.15,0.35,0.19,-6.85,3.91,3.47,0.31,0.35,0.16,-5.34,7.38,2.08,0.41,0.20,0.12,0.22,0.96,0.10,17.82,4.39,-9.40,R
15.075,170,240,237,255,189,6.34,-1.11,7.75,0.02,-0.04,-0.11,-5.94,-2.22,6.09,0.17,0.75,0.07,-7.48,3.40,3.85,0.31,0.57,0.24,-7.14,4.71,3.72,0.44,0.70,0.20,-5.65,8.08,2.93,0.52,0.62,0.16,0.21,0.98,0.10,16.11,0.31,-14.40,R
15.126,165,239,238,255,193,6.99,-0.23,7.05,0.14,-0.12,0.03,-7.03,-1.62,6.11,-0.00,0.77,0.06,-7.59,3.35,3.69,0.08,0.50,0.08,-6.87,4.06,3.58,0.26,0.58,0.17,-4.69,6.64,2.49,0.40,0.43,0.14,0.24,0.96,0.12,19.53,3.66,-6.53,R
15.177,159,237,236,255,191,7.45,-1.31,6.24,0.17,-0.44,-0.16,-8.69,-1.46,5.42,0.20,0.34,0.24,-8.95,4.48,2.37,0.35,0.46,0.27,-8.12,6.18,2.34,0.39,0.47,0.20,-5.12,9.17,1.43,0.42,0.30,0.15,0.25,0.96,0.15,21.18,0.06,-14.22,R
15.228,150,238,233,255,192,6.32,-0.99,7.38,0.09,-0.16,-0.02,-8.94,-0.38,5.15,0.00,0.39,0.14,-8.48,4.86,1.90,0.02,0.49,0.06,-7.80,6.46,1.38,-0.03,0.47,-0.07,-5.01,9.21,0.32,-0.08,0.28,-0.11,0.27,0.93,0.17,10.44,2.81,-1.22,R
15.28,148,237,231,255,192,8.64,-0.79,4.92,-0.03,0.11,0.01,-8.71,-1.68,5.94,0.03,0.47,-0.04,-9.00,3.90,2.83,0.14,0.26,0.05,-7.75,6.00,2.13,0.09,0.10,0.05,-5.33,8.96,0.73,0.26,0.01,0.05,0.27,0.94,0.16,8.00,-3.30,-6.71,R
15.33,141,237,235,255,191,7.41,-0.43,6.87,0.06,-0.58,-0.02,-8.93,-1.61,5.67,0.08,0.47,0.13,-8.09,3.61,3.07,0.14,0.60,0.19,-8.45,5.12,2.49,0.14,0.49,0.09,-6.10,8.21,0.83,0.33,0.24,0.06,0.26,0.94,0.16,13.55,2.81,-7.87,R
15.382,133,237,236,255,193,7.61,-0.45,6.20,-0.06,0.02,-0.15,-9.31,-1.27,5.09,0.24,0.37,0.21,-8.80,3.68,2.13,0.17,0.26,0.19,-8.35,5.73,1.77,0.15,0.17,0.11,-6.40,8.45,0.65,0.15,-0.02,0.03,0.26,0.94,0.19,5.43,-2.44,-9.52,R
15.432,129,236,235,255,191,7.39,-0.48,6.84,0.06,-0.43,-0.07,-8.67,-0.86,4.77,0.02,0.13,0.00,-8.52,4.41,2.36,-0.04,0.12,0.02,-7.63,5.43,2.58,-0.04,0.08,-0.06,-4.13,7.27,0.67,-0.01,0.09,0.11,0.28,0.97,0.18,2.62,0.85,-0.37,R
15.484,125,238,235,255,192,8.92,0.07,5.13,-0.06,-0.25,0.01,-9.16,-1.51,5.45,0.00,0.17,0.05,-9.18,3.45,2.76,0.02,0.11,0.06,-8.26,4.81,2.38,0.10,0.04,0.09,-5.42,7.66,0.97,0.19,0.02,0.16,0.27,0.94,0.16,6.29,-0.18,-5.25,R
15.535,126,236,236,255,191,8.06,-0.87,5.62,-0.05,0.02,-0.28,-8.69,-0.59,4.67,0.25,0.31,0.03,-8.47,4.15,2.13,0.09,0.15,0.01,-7.63,5.60,1.92,0.03,0.02,0.01,-5.26,8.58,0.62,0.02,-0.12,0.11,0.27,0.93,0.19,1.53,-3.85,-11.84,R
15.586,118,235,235,255,190,7.63,0.43,5.85,-0.21,0.08,-0.42,-10.52,-1.40,4.61,0.45,-0.11,0.32,-9.46,4.11,1.63,0.25,-0.32,0.21,-8.09,5.80,1.40,0.22,-0.44,0.24,-5.34,8.81,-0.24,0.05,-0.42,0.34,0.30,0.89,0.21,-8.30,-5.86,-14.53,R
15.636,114,236,236,255,193,7.79,-1.25,6.30,-0.91,0.40,-0.36,-8.08,-0.57,4.49,0.48,-0.29,0.29,-7.94,4.30,1.49,0.20,-0.27,0.29,-7.85,5.72,1.45,0.13,-0.28,0.24,-5.18,9.05,0.56,0.01,-0.27,0.36,0.30,0.90,0.18,-22.83,-8.79,-17.64,R
15.688,114,236,236,255,193,8.82,-1.38,6.41,-1.10,0.41,-0.89,-10.26,-4.58,5.52,1.18,-0.82,0.47,-11.77,0.61,1.70,0.81,-0.83,0.63,-10.85,3.46,1.00,0.79,-1.15,0.80,-7.30,8.74,0.17,0.32,-1.41,1.21,0.49,0.85,0.14,-64.15,-32.65,-56.88,R
15.74,107,235,236,255,191,6.26,2.49,8.94,-1.66,-0.43,-2.15,-12.03,1.67,3.24,3.24,-1.05,0.40,-8.05,8.07,-0.07,1.73,-1.67,1.21,-5.99,9.35,0.19,0.93,-1.81,0.78,-3.03,12.75,-2.92,-0.19,-1.30,1.09,0.46,0.94,0.04,-131.16,-77.09,-73.30,R
15.789,53,235,240,255,201,16.03,-7.29,-6.52,-3.26,-6.85,1.22,-2.83,-1.74,3.94,3.98,-1.67,0.74,-8.31,1.27,1.67,2.38,-2.37,1.42,-8.23,3.73,2.38,2.04,-3.13,1.13,-4.73,7.07,2.20,0.79,-3.60,1.48,0.89,0.72,-0.13,-172.49,-114.99,-98.88,R
15.841,9,238,241,255,204,10.47,-0.59,-6.77,-3.43,-2.88,-2.32,-7.26,3.74,3.86,6.49,-0.01,0.11,-2.94,7.11,0.27,4.30,-2.15,2.30,-0.62,8.42,-2.18,3.99,-1.74,1.78,1.03,8.42,-1.60,2.71,0.21,1.69,0.71,1.06,-0.34,-210.08,-218.14,-168.15,R
15.892,0,240,246,255,226,6.62,2.70,-2.96,-4.23,-3.61,-2.35,-2.25,5.81,-4.53,7.21,2.22,0.50,-3.28,4.34,-2.07,4.90,-1.74,3.40,-1.75,6.60,-1.68,3.91,-2.15,2.87,0.16,8.32,-0.56,1.99,-2.23,2.82,0.82,0.68,-0.14,-226.87,-246.52,-208.37,R
15.942,0,246,252,255,240,6.73,2.38,1.56,-5.06,-0.78,-0.67,-5.03,8.78,-2.83,6.57,0.42,1.24,-1.15,14.48,-1.36,4.40,-0.14,3.74,-2.80,14.59,0.04,3.27,-1.86,2.89,2.40,12.84,0.56,1.69,-3.07,3.22,0.58,0.69,-0.19,-147.83,-225.65,-176.88,R
15.993,0,250,255,255,240,9.74,-0.27,4.26,-4.22,-1.29,-2.30,-6.21,10.47,-3.51,3.94,0.57,1.37,-8.09,15.71,0.55,2.46,-0.22,2.97,8.41,-0.36,0.64,1.02,-1.67,1.54,3.35,5.80,2.56,0.31,-3.20,2.04,0.68,0.37,0.17,-147.58,-151.49,-113.59,R
16.044,0,255,255,255,240,6.96,-0.23,2.88,-2.46,-1.32,-1.38,-8.12,6.81,-5.58,3.02,-0.58,1.03,-1.24,9.44,-6.84,1.13,-1.58,2.57,3.05,7.18,-5.69,0.36,-2.59,1.83,3.86,9.27,-6.27,-0.57,-3.00,1.77,0.83,0.36,0.11,-96.50,-93.32,-106.51,R
16.095,0,251,255,255,239,0.40,16.81,-6.81,-2.80,-1.27,-3.08,-3.28,10.13,-2.88,2.47,-0.07,1.00,-3.18,13.85,-1.04,1.11,-0.37,1.51,2.36,10.53,1.16,0.13,-1.59,1.27,5.20,10.00,0.31,-0.60,-1.97,1.14,0.98,0.35,0.20,-123.29,-99.85,-60.36,R
16.146,0,255,255,255,240,9.84,1.20,2.90,-2.74,-1.92,-0.82,-5.97,6.82,-6.22,1.88,-0.96,0.95,2.81,9.34,-6.73,0.08,-1.21,1.30,2.38,10.17,-3.01,-0.44,-2.23,0.89,4.49,9.60,-2.46,-1.02,-2.36,0.97,1.00,0.27,0.15,-146.55,-50.90,-56.64,R
16.198,0,255,255,255,237,2.97,25.52,-2.52,-2.72,-1.02,-0.85,-2.60,9.61,-0.92,1.59,-0.49,1.34,0.43,8.63,0.42,0.32,-0.12,0.47,2.97,9.57,1.90,-0.16,-1.08,0.11,5.57,8.74,0.75,-0.68,-1.52,0.48,0.90,0.44,0.23,-124.08,-58.96,-15.01,R
16.248,0,255,255,255,236,7.68,6.04,-1.05,-2.01,-1.20,-0.42,-4.54,8.35,-4.66,1.73,-0.84,1.08,2.96,6.63,-4.00,0.05,-0.97,1.43,1.20,7.53,-1.51,0.46,-1.43,0.80,1.91,7.85,-1.88,0.39,-1.95,0.58,1.08,0.21,0.25,-86.79,-58.90,-36.32,R
16.299,0,255,255,255,235,8.71,3.39,1.08,-2.03,-0.33,0.65,-3.51,8.45,-5.34,1.52,-0.27,1.16,2.14,9.60,-3.57,0.42,-0.08,1.07,0.71,9.97,0.19,0.36,-0.25,0.65,3.88,9.70,-0.78,0.15,-0.59,0.51,0.67,0.38,0.30,-45.96,-53.34,-29.66,R
16.351,0,255,255,255,232,7.97,5.21,-0.63,-0.84,-0.51,-0.15,-4.43,5.23,-6.22,0.44,-0.45,1.27,1.45,7.29,-5.66,0.07,-0.53,0.99,0.33,9.26,-3.32,0.36,-1.05,0.68,2.63,8.60,-4.17,0.25,-1.41,0.46,1.11,0.13,0.39,-47.49,-34.91,-29.54,R
16.401,0,255,255,255,232,9.92,2.83,2.22,-1.49,-0.24,0.13,-2.53,9.48,-6.86,0.75,-0.11,0.86,4.84,10.64,-3.99,-0.02,-0.16,0.63,3.12,11.54,-0.56,-0.27,-0.16,0.33,4.44,10.66,-0.88,-0.33,-0.02,0.02,0.67,0.33,0.36,-44.92,-27.47,-24.17,R
16.453,0,255,255,255,230,7.02,5.99,0.04,-0.22,-0.32,-0.99,-3.31,4.84,-5.11,-0.04,-0.29,0.60,1.81,5.95,-4.91,-0.14,-0.47,0.56,1.36,8.09,-3.00,0.35,-0.88,0.33,3.24,8.17,-3.00,0.44,-1.18,0.21,1.14,0.12,0.38,-29.05,-12.08,-20.14,R
16.504,0,255,255,255,230,8.93,5.35,2.09,-1.01,-0.15,-0.03,-1.72,10.84,-7.03,0.49,-0.53,0.49,4.59,10.86,-4.59,-0.09,-0.29,0.26,2.28,10.72,-0.92,-0.42,-0.13,-0.09,4.54,9.64,-2.32,-0.45,-0.06,-0.18,0.74,0.29,0.33,-33.45,-15.44,-14.40,R
16.554,0,255,255,255,228,6.45,7.73,-1.00,-0.24,-0.37,-0.15,-4.69,4.63,-6.00,0.49,-0.16,0.69,2.47,6.49,-5.74,0.07,-0.57,0.82,0.75,10.22,-3.12,0.23,-1.05,0.36,2.99,9.00,-3.50,-0.05,-1.14,0.04,0.93,0.11,0.37,-32.65,-28.50,-17.46,R
16.605,0,255,255,255,227,8.77,3.60,1.03,-1.01,-0.65,0.13,-3.51,7.71,-7.23,0.54,-0.86,0.66,4.64,8.65,-5.22,-0.21,-1.14,0.50,3.65,9.51,-1.90,-0.27,-1.09,0.00,4.42,8.39,-2.69,-0.44,-0.87,0.01,0.85,0.24,0.41,-67.93,-18.68,-13.85,R
16.656,0,255,255,255,227,6.06,8.42,-1.29,-0.67,-0.47,0.17,-3.84,5.05,-6.38,0.90,-0.83,0.37,2.42,6.73,-5.34,0.42,-1.31,0.85,1.46,9.05,-2.49,0.75,-1.62,0.26,3.62,8.66,-2.45,0.34,-1.73,0.17,1.03,0.08,0.36,-49.32,-45.96,-11.29,R
16.708,0,255,255,255,227,9.94,2.50,2.11,-0.56,-0.41,0.44,-1.41,9.30,-5.74,0.36,-0.32,0.34,5.10,9.40,-3.85,-0.36,-0.05,0.25,3.66,9.66,-0.83,-0.59,0.16,0.30,4.60,8.65,-1.70,-0.52,0.65,0.37,0.69,0.35,0.35,-2.56,33.08,-25.82,R
16.759,0,255,255,255,227,7.20,5.98,1.97,0.43,0.08,-0.74,-3.74,5.48,-6.52,-0.39,0.20,0.46,2.58,7.10,-5.26,-0.48,0.12,0.27,1.53,8.53,-2.44,-0.29,-0.14,0.27,3.36,8.40,-2.65,-0.19,-0.20,0.19,1.02,0.12,0.35,-14.22,10.19,-17.94,R
16.81,0,255,255,255,226,8.66,7.03,1.35,0.44,-0.00,-0.50,-2.06,9.51,-5.56,-0.67,0.37,0.28,4.30,9.28,-3.51,-0.80,0.74,-0.19,3.01,9.44,-0.54,-0.90,0.95,0.21,4.29,8.26,-1.51,-0.66,1.29,0.26,0.80,0.29,0.27,29.85,63.54,-23.32,R
16.86,0,252,255,255,226,6.16,7.90,-0.34,0.49,0.26,-0.60,-3.77,5.10,-5.50,-0.49,0.26,0.27,2.11,6.89,-4.45,-0.29,0.25,0.11,1.83,8.26,-1.73,-0.05,0.02,0.27,3.50,8.16,-2.10,0.15,-0.03,0.25,1.05,0.07,0.32,2.99,0.61,-7.51,R
16.912,0,253,255,255,225,8.71,4.11,1.13,0.42,0.30,-0.14,-2.09,9.21,-5.80,-0.63,0.31,0.19,4.13,9.55,-3.61,-0.60,0.79,-0.28,3.46,10.10,-0.39,-0.78,1.02,0.11,5.17,8.81,-1.20,-0.59,1.34,0.11,0.79,0.25,0.26,36.80,55.30,-15.56,R
16.962,0,255,255,255,226,6.48,6.47,-0.27,0.90,0.42,-0.76,-2.96,7.13,-6.57,-0.74,0.53,0.15,2.74,8.08,-4.77,-0.49,0.60,-0.17,1.61,9.14,-1.85,-0.36,0.42,0.00,3.89,8.29,-2.36,-0.15,0.30,-0.02,1.07,0.06,0.28,21.48,26.00,-8.91,R
17.013,0,255,255,255,226,8.00,6.19,1.41,0.41,0.54,0.59,-2.16,9.27,-5.77,-0.17,0.01,0.12,5.19,10.06,-3.42,-0.30,0.25,-0.16,4.16,10.27,0.43,-0.56,0.55,-0.05,5.32,9.00,-0.48,-0.47,0.83,-0.00,0.84,0.20,0.21,12.39,20.69,-5.68,R
17.064,0,255,255,255,225,6.48,9.84,-2.33,0.76,0.52,-0.12,-3.39,5.56,-4.65,-0.70,0.48,0.09,2.21,7.40,-3.73,-0.34,0.54,-0.05,1.38,8.82,-1.25,-0.11,0.28,0.18,3.73,8.32,-1.83,0.09,0.09,0.14,1.13,0.04,0.24,23.86,23.44,-7.39,R
17.116,0,252,255,255,225,8.22,5.84,-0.70,-0.31,1.82,0.60,-2.26,9.45,-5.64,-0.06,-0.14,0.03,4.35,9.45,-2.95,-0.13,0.21,-0.22,3.48,10.13,0.39,-0.31,0.42,-0.09,5.04,9.00,-0.43,-0.24,0.56,-0.09,0.88,0.17,0.21,8.91,7.45,0.06,R
17.166,0,253,255,255,226,6.87,5.36,1.06,0.30,1.53,0.97,-2.66,7.23,-5.26,-0.55,0.16,0.21,2.63,8.32,-3.95,-0.21,0.50,-0.24,1.97,8.90,-1.11,-0.26,0.42,-0.01,3.75,7.91,-2.14,-0.04,0.29,-0.08,1.05,0.07,0.26,21.55,16.78,-1.46,R
17.218,0,255,255,255,226,4.97,7.59,-2.93,-1.70,3.38,2.15,1.60,11.63,-7.36,-0.49,-0.19,0.32,3.45,9.60,-3.10,-0.09,0.01,-0.13,3.31,10.82,0.23,-0.19,0.28,-0.26,5.96,9.62,0.08,-0.27,0.42,-0.37,0.91,0.16,0.26,-2.75,-12.76,3.60,R
17.268,17,255,255,255,225,8.71,-0.36,3.53,-3.08,6.79,2.41,-2.77,6.77,-4.04,-1.04,-0.83,1.11,1.32,7.06,-2.89,-0.30,0.31,-0.14,2.24,10.23,-0.00,-0.08,0.19,-0.10,5.85,10.60,0.71,-0.37,0.32,0.00,1.00,0.03,0.18,14.28,18.55,-6.41,R
17.319,23,255,255,255,225,7.30,0.74,9.85,-0.64,-0.73,1.64,-3.24,9.06,-4.36,-0.60,-0.41,0.92,3.31,10.12,-2.97,-0.46,0.27,-0.33,2.61,9.04,0.11,-0.60,0.43,-0.23,4.06,7.95,-0.99,-0.31,0.43,-0.21,0.97,0.12,0.21,1.40,24.29,-2.38,R
17.371,14,255,255,255,226,6.52,0.96,13.64,-0.41,0.31,1.11,-0.13,10.20,-3.66,-0.39,-0.36,-0.03,3.60,10.08,-2.70,-0.17,0.02,-0.19,2.93,9.68,1.08,-0.36,0.11,-0.11,5.20,8.30,-0.48,-0.37,0.22,-0.06,0.91,0.11,0.17,-8.18,4.09,3.91,R
17.421,12,255,255,255,225,7.52,4.72,5.54,0.03,-0.19,0.24,-2.06,7.80,-3.40,-0.51,0.06,0.21,2.39,8.42,-2.32,-0.29,0.23,-0.04,2.29,8.73,0.68,-0.19,0.17,0.10,4.32,8.34,0.17,-0.05,0.27,0.13,0.99,0.12,0.17,7.39,18.25,-5.55,R
17.472,10,255,255,255,225,8.06,3.72,4.74,-0.22,0.23,0.57,-2.50,9.24,-4.52,-0.42,-0.33,0.19,3.00,8.79,-2.44,-0.34,-0.04,-0.13,2.37,8.87,0.60,-0.30,0.03,-0.13,4.69,8.52,0.03,-0.24,0.06,-0.07,1.00,0.08,0.16,-4.27,15.50,-1.04,R
17.523,6,255,255,255,225,7.86,4.03,6.79,-0.04,0.06,0.54,-1.42,9.29,-3.31,-0.25,0.08,0.20,3.18,9.62,-2.28,-0.21,0.19,-0.15,2.38,9.44,1.20,-0.29,0.26,-0.03,4.23,8.69,0.47,-0.23,0.34,0.00,0.95,0.13,0.14,9.58,13.67,-3.23,R
17.574,5,255,255,255,225,7.85,1.12,5.49,0.18,-0.33,0.04,-1.84,9.39,-3.28,-0.58,-0.06,0.38,2.56,8.80,-2.24,-0.48,0.14,-0.20,1.98,8.95,0.92,-0.44,0.12,-0.04,4.01,8.62,0.11,-0.41,0.18,0.01,1.02,0.10,0.14,-1.34,27.28,-4.88,R
17.625,6,255,255,255,225,7.88,1.32,5.95,0.14,-0.03,-0.34,-0.89,9.87,-2.55,-0.27,0.11,0.39,3.29,9.51,-1.39,-0.45,0.27,-0.22,2.46,9.58,1.97,-0.51,0.42,-0.06,4.66,9.39,1.75,-0.52,0.63,-0.01,0.89,0.17,0.09,6.47,30.40,-6.71,R
17.677,4,255,255,255,225,7.70,2.88,5.25,0.62,-0.54,-0.19,-1.82,7.90,-2.63,-0.95,0.06,0.38,1.84,8.28,-1.68,-0.68,0.20,-0.37,1.97,8.25,1.32,-0.60,0.14,-0.02,4.19,8.16,0.68,-0.43,0.20,0.08,1.15,0.04,0.10,5.74,40.41,-5.31,R
17.727,3,255,255,255,225,7.84,0.89,7.49,0.31,-0.24,-0.46,-0.18,10.47,-2.32,-0.39,0.16,0.51,3.13,10.16,-1.00,-0.63,0.32,-0.26,2.60,10.08,2.51,-0.78,0.39,-0.03,4.44,9.35,1.66,-0.75,0.62,-0.01,0.90,0.12,0.02,7.08,43.21,-11.60,R
17.778,1,255,255,255,225,8.23,2.55,4.03,0.72,-0.89,-0.72,-0.97,8.61,-1.88,-0.78,0.09,0.18,2.46,8.53,-0.74,-0.54,0.14,-0.29,2.47,9.12,2.20,-0.49,0.19,-0.01,4.32,8.49,1.42,-0.44,0.31,0.02,1.12,0.05,0.05,2.50,36.07,-3.48,R
17.829,3,253,255,255,223,8.22,1.65,6.27,0.46,-0.35,-0.59,-0.69,11.97,-2.25,-0.59,0.11,0.26,2.79,10.52,-0.91,-0.62,0.21,-0.41,2.19,9.69,3.03,-0.82,0.31,-0.17,4.36,8.90,2.10,-0.78,0.47,-0.10,0.96,0.10,-0.05,2.20,44.74,-4.39,R
17.881,1,252,255,255,225,8.49,2.14,4.24,0.60,-0.82,-0.73,-0.36,9.19,-1.60,-0.72,0.09,0.14,2.53,9.55,-0.35,-0.61,0.16,-0.37,2.30,9.03,2.99,-0.66,0.25,-0.14,4.44,8.84,1.92,-0.54,0.40,-0.04,1.06,0.08,-0.03,-2.38,38.45,-1.46,R
17.932,0,251,255,255,224,8.54,2.30,4.56,0.54,-0.43,-0.44,-1.68,10.33,-2.36,-0.69,0.15,0.23,1.94,10.05,-1.17,-0.65,0.19,-0.37,1.81,9.67,2.62,-0.72,0.25,-0.21,3.98,8.90,1.77,-0.71,0.33,-0.16,1.01,0.07,-0.05,4.21,42.97,-1.77,R
17.982,0,253,255,255,225,8.84,2.96,3.98,0.20,-0.58,-0.43,-0.53,10.20,-1.61,-0.56,-0.22,0.04,2.35,10.07,-0.49,-0.39,-0.15,-0.36,2.30,9.61,2.89,-0.44,-0.01,-0.28,4.65,9.25,2.11,-0.42,0.08,-0.22,1.07,0.08,-0.03,-13.43,25.88,6.35,R
18.034,0,253,255,255,225,8.82,2.15,6.79,0.30,-0.76,-0.33,-0.61,10.94,-2.36,-0.88,-0.08,0.13,2.49,10.92,-0.20,-0.78,0.09,-0.62,2.44,9.53,3.76,-0.93,0.31,-0.44,4.68,8.80,2.91,-0.88,0.54,-0.37,1.00,0.05,-0.12,-10.19,51.39,3.66,R
18.084,0,253,255,255,225,8.78,2.28,3.16,0.36,-1.21,-0.54,-0.35,9.14,-0.68,-1.09,-0.33,0.27,1.48,9.05,0.97,-0.84,-0.12,-0.72,1.92,7.71,4.17,-0.92,0.16,-0.53,3.83,7.57,3.82,-0.85,0.37,-0.40,0.92,0.06,-0.20,-19.41,54.57,10.62,R
18.136,0,255,255,255,225,7.91,4.02,2.15,0.46,-0.98,-0.63,0.82,9.39,1.91,-1.15,0.00,0.14,0.45,8.60,2.65,-0.88,0.21,-0.78,0.85,7.18,5.66,-0.96,0.45,-0.44,2.67,7.47,5.35,-0.91,0.62,-0.34,0.88,0.07,-0.37,-8.24,66.16,4.09,R
18.187,0,253,255,255,225,8.03,5.53,-1.96,0.24,-0.73,-0.33,0.58,7.97,3.26,-0.64,-0.16,0.18,-0.49,8.61,3.41,-0.52,-0.03,-0.31,0.68,6.85,6.60,-0.52,0.08,-0.16,3.06,6.87,6.29,-0.56,0.25,-0.09,0.87,0.06,-0.47,-14.40,25.33,-1.10,R
18.237,0,253,255,255,225,8.26,3.57,1.36,0.52,-0.66,-0.52,0.75,9.15,2.55,-0.90,0.20,0.37,-0.50,8.81,3.48,-0.77,0.34,-0.50,0.40,6.56,6.37,-0.75,0.49,-0.20,2.42,7.01,5.69,-0.55,0.62,-0.18,0.86,0.09,-0.46,10.01,54.99,-2.20,R
18.288,0,255,255,255,225,7.99,5.36,-1.27,0.42,-0.43,-0.40,0.28,8.96,2.68,-0.54,0.06,0.10,-0.55,8.60,3.01,-0.42,0.16,-0.30,0.13,6.91,6.26,-0.45,0.21,-0.13,2.35,7.07,5.94,-0.36,0.29,-0.10,0.83,0.07,-0.47,-0.92,25.57,-0.92,R
18.34,0,253,255,255,225,8.13,5.30,-1.30,0.11,-0.20,-0.19,0.16,8.38,2.83,-0.15,0.03,0.08,-1.02,8.50,2.98,-0.16,-0.03,-0.05,-0.14,7.04,6.05,-0.09,-0.06,-0.04,2.42,7.49,6.03,-0.08,-0.04,-0.02,0.88,0.07,-0.45,-5.13,2.69,0.37,R
18.39,0,253,255,255,225,8.69,3.33,2.14,0.38,-0.37,-0.27,0.47,9.45,2.74,-0.61,0.26,0.14,-0.30,9.32,3.18,-0.57,0.39,-0.34,0.26,7.25,6.11,-0.56,0.50,-0.03,2.32,7.22,5.50,-0.41,0.58,-0.00,0.84,0.13,-0.45,18.86,44.74,-4.52,R
18.442,0,252,255,255,224,8.41,5.63,-1.91,0.14,-0.07,-0.19,-0.74,8.21,2.26,-0.14,0.11,0.06,-1.02,8.67,2.45,-0.10,-0.03,0.04,-0.23,7.25,5.84,-0.00,-0.14,0.03,2.37,7.63,5.63,0.01,-0.19,0.02,0.93,0.07,-0.43,-6.47,-2.99,-1.59,R
18.493,0,251,255,255,225,8.52,4.17,3.88,0.11,-0.10,-0.08,1.19,10.47,2.73,-0.47,0.25,0.11,0.10,10.13,3.20,-0.57,0.50,-0.36,0.79,8.09,6.69,-0.75,0.69,0.01,2.61,7.78,5.99,-0.67,0.94,0.01,0.70,0.13,-0.48,19.53,46.45,-7.39,R
18.543,0,252,255,255,224,8.28,5.95,-3.05,0.62,-0.36,-0.34,0.01,7.67,2.70,-0.41,0.16,0.32,-1.11,8.36,2.71,-0.31,0.19,-0.02,-0.39,6.69,5.97,-0.18,0.03,0.15,1.81,6.98,5.51,-0.11,-0.04,0.14,0.97,0.02,-0.46,-0.12,9.95,-7.26,R
18.594,0,253,255,255,225,8.11,4.69,0.72,-0.16,0.14,-0.13,0.96,9.73,3.25,0.08,0.04,0.12,-0.45,9.40,3.76,-0.18,0.07,0.06,0.36,7.18,7.17,-0.21,0.11,0.08,2.48,7.05,6.71,-0.18,0.22,0.11,0.74,0.10,-0.54,-0.85,4.33,-8.48,R
18.645,0,251,255,255,224,8.17,6.46,-1.45,0.22,0.06,-0.21,0.53,8.89,3.13,0.00,0.11,0.22,-0.83,8.70,3.47,-0.06,0.05,0.19,0.06,6.90,6.70,0.11,-0.08,0.20,2.59,7.47,6.45,0.13,-0.12,0.18,0.92,0.01,-0.51,7.51,-2.93,-9.40,R
18.697,0,252,255,255,225,8.55,4.86,2.40,0.07,0.09,-0.09,0.79,10.11,2.63,-0.13,0.19,0.08,-0.15,9.78,3.28,-0.24,0.18,-0.05,0.45,7.49,6.56,-0.25,0.19,0.04,2.56,7.32,5.70,-0.14,0.21,0.02,0.89,0.03,-0.47,10.25,14.16,-5.25,R
18.748,0,251,255,255,225,8.24,6.34,-1.20,-0.07,0.11,-0.07,0.36,8.90,2.66,0.21,-0.07,-0.03,-0.59,9.05,3.26,0.15,-0.19,0.18,0.47,7.30,6.80,0.21,-0.24,0.06,2.97,7.49,6.66,0.13,-0.20,0.04,0.84,0.06,-0.50,-6.59,-16.78,1.59,R
18.799,0,251,255,255,225,8.15,4.73,0.69,0.11,-0.02,-0.04,0.72,8.96,3.01,-0.16,0.04,0.13,-0.33,8.84,3.56,-0.15,0.11,-0.09,0.38,6.67,6.71,-0.10,0.16,-0.00,2.55,6.90,6.06,-0.03,0.17,0.01,0.87,0.06,-0.49,4.33,11.47,-1.71,R
18.85,0,252,255,255,224,8.12,5.06,-1.30,-0.09,0.25,-0.05,0.02,8.39,2.77,0.21,-0.03,0.06,-0.67,8.65,3.09,0.12,-0.19,0.21,0.29,6.85,6.58,0.24,-0.28,0.09,2.72,7.33,6.45,0.19,-0.30,0.06,0.87,0.06,-0.49,-5.68,-13.98,-2.75,R
18.9,0,251,255,255,223,8.22,4.52,2.68,0.07,-0.09,-0.10,1.03,9.88,2.67,-0.19,0.15,0.03,-0.07,9.41,3.44,-0.25,0.19,-0.11,0.72,7.09,6.49,-0.24,0.23,0.02,2.59,7.21,5.67,-0.13,0.26,0.04,0.89,0.04,-0.47,5.74,16.78,-4.94,R
18.951,0,251,255,255,223,8.15,5.62,-1.42,-0.16,0.22,0.03,0.30,8.57,2.67,0.25,-0.11,0.01,-0.70,8.86,3.19,0.15,-0.21,0.23,0.07,7.05,6.48,0.24,-0.31,0.08,2.69,7.30,6.33,0.17,-0.36,0.05,0.85,0.03,-0.49,-8.91,-21.06,0.31,R
19.003,0,251,255,255,223,8.05,4.27,2.44,0.12,-0.04,-0.11,1.48,10.00,3.04,-0.22,0.12,0.06,-0.14,9.07,3.70,-0.22,0.19,-0.14,0.35,6.75,6.53,-0.21,0.24,0.00,2.39,6.75,5.70,-0.07,0.22,0.04,0.88,0.05,-0.49,7.45,18.13,-4.58,R
19.053,0,250,255,255,225,8.12,5.92,-2.31,-0.22,0.25,0.02,0.48,8.35,3.01,0.35,-0.07,0.03,-0.75,8.70,3.41,0.24,-0.22,0.30,0.33,7.19,6.72,0.36,-0.35,0.13,2.92,7.41,6.51,0.27,-0.40,0.10,0.89,0.04,-0.50,-8.24,-26.79,-1.22,R
19.104,0,252,255,255,226,8.11,5.29,2.35,-0.06,0.09,-0.01,1.62,9.97,2.85,-0.06,0.05,0.06,0.03,9.33,3.66,-0.14,0.14,-0.02,0.68,7.16,6.63,-0.14,0.17,0.04,2.56,7.08,5.58,-0.05,0.18,0.05,0.85,0.06,-0.48,7.08,11.47,-4.70,R
19.155,0,251,255,255,225,8.17,5.02,-0.68,-0.13,0.25,0.02,0.59,8.84,2.28,0.21,-0.03,0.00,-0.43,9.01,3.06,0.11,-0.13,0.18,0.48,7.31,6.31,0.18,-0.20,0.08,2.90,7.40,6.08,0.15,-0.21,0.04,0.86,0.04,-0.47,-3.91,-15.44,-1.46,R
19.206,0,251,255,255,224,8.14,4.57,1.95,0.07,-0.05,-0.05,0.58,9.55,2.43,-0.13,0.13,0.03,-0.16,9.15,3.14,-0.19,0.15,-0.05,0.49,6.96,6.21,-0.14,0.18,0.03,2.82,7.08,5.64,-0.07,0.18,0.03,0.86,0.05,-0.46,6.41,12.63,-4.15,R
19.257,0,251,255,255,224,8.12,5.66,-0.22,-0.00,0.10,-0.01,0.45,9.34,2.17,0.08,0.01,0.13,-0.32,9.00,3.14,-0.00,-0.04,0.09,0.50,7.12,6.47,0.08,-0.09,0.06,2.94,7.38,6.14,0.07,-0.11,0.04,0.88,0.02,-0.47,-0.79,-6.41,-1.53,R
19.308,0,249,255,255,223,8.05,5.10,1.79,0.05,-0.00,-0.04,1.25,9.71,2.59,-0.14,0.11,-0.02,0.08,9.43,3.51,-0.16,0.12,-0.08,0.71,7.26,6.66,-0.18,0.17,-0.01,2.98,7.31,6.07,-0.11,0.21,-0.01,0.85,0.05,-0.48,4.94,11.29,-2.50,R
19.359,0,249,255,255,225,8.15,5.95,-0.54,0.08,0.02,-0.08,0.38,8.82,2.48,-0.02,0.03,0.10,-0.50,8.95,3.19,-0.02,-0.02,0.08,0.53,7.02,6.42,0.07,-0.08,0.04,2.97,7.30,6.00,0.08,-0.11,0.03,0.91,0.02,-0.48,0.18,-4.21,-0.85,R
19.41,0,250,255,255,224,8.02,5.15,2.44,-0.02,0.14,0.02,1.22,9.58,2.66,-0.11,0.07,-0.03,-0.01,9.28,3.58,-0.12,0.11,-0.08,0.69,7.19,6.70,-0.13,0.18,-0.02,2.90,7.15,6.02,-0.07,0.23,-0.02,0.85,0.05,-0.48,4.94,8.24,-0.43,R
19.461,0,249,255,255,225,8.15,5.70,-0.44,0.10,0.01,-0.03,0.50,8.83,2.48,0.00,0.04,-0.05,-0.52,8.72,3.14,0.03,-0.04,0.04,0.48,6.88,6.38,0.10,-0.08,0.04,2.67,7.30,6.00,0.11,-0.12,0.04,0.88,0.03,-0.47,0.31,-5.07,0.24,R
19.512,0,249,255,255,223,7.98,5.64,2.02,-0.13,0.13,0.07,1.22,9.66,2.74,0.05,-0.03,0.07,0.08,9.39,3.56,0.01,-0.03,0.02,0.89,7.33,6.94,0.02,0.01,-0.01,3.34,7.28,6.43,0.02,0.07,-0.01,0.85,0.05,-0.49,1.28,-2.08,0.37,R
19.564,0,244,255,255,222,8.12,6.17,-0.17,0.05,0.09,0.05,0.95,9.35,2.65,0.03,0.10,-0.08,-0.30,9.01,3.51,0.07,0.02,0.01,0.47,6.99,6.58,0.15,-0.03,0.00,2.77,7.22,5.92,0.20,-0.11,0.01,0.92,0.02,-0.49,3.48,-5.19,0.79,R
19.614,0,249,255,255,224,8.33,7.09,-1.59,-0.62,0.71,0.31,0.73,9.60,2.68,0.67,-0.31,-0.21,-0.22,9.44,3.85,0.60,-0.44,0.29,1.05,7.79,7.34,0.69,-0.44,-0.06,3.83,8.19,7.02,0.50,-0.47,-0.07,0.90,0.06,-0.50,-9.40,-43.15,7.87,R
19.665,0,250,255,255,222,8.61,5.51,0.39,-0.30,0.30,0.27,0.95,9.58,2.48,0.39,-0.01,-0.21,-0.38,8.94,2.90,0.45,-0.19,0.21,0.17,7.05,5.45,0.64,-0.39,0.04,2.48,7.07,4.35,0.73,-0.75,0.01,1.07,-0.00,-0.43,3.97,-23.56,4.64,R
19.718,0,249,255,255,222,7.66,8.64,-3.95,-2.11,1.83,0.79,0.25,9.79,1.87,2.54,-0.99,-0.83,0.63,9.81,3.04,2.21,-1.62,1.15,2.05,8.74,6.98,2.36,-1.73,-0.09,5.04,8.75,6.70,1.88,-2.05,-0.16,0.99,0.06,-0.47,-53.47,-177.25,26.49,R
19.768,0,250,255,255,222,8.44,2.95,5.01,-1.49,1.37,0.96,0.62,10.28,1.19,1.56,-0.25,-0.57,0.98,10.09,1.91,1.31,-0.50,0.74,1.62,8.58,4.76,1.46,-0.64,0.26,3.81,8.27,3.10,1.43,-0.97,0.17,1.03,0.05,-0.27,2.62,-85.51,6.16,R
19.819,0,252,255,255,223,8.27,6.01,-0.30,-2.01,2.00,1.13,-0.65,9.05,-1.32,2.64,-0.81,-0.91,1.56,9.29,-0.20,2.57,-1.38,1.35,1.81,9.14,3.20,2.96,-1.68,0.09,4.49,9.29,2.48,2.59,-2.31,-0.15,1.16,0.02,-0.15,-42.85,-194.34,24.90,R
19.87,4,249,255,255,223,6.83,0.56,7.25,-2.32,2.06,1.43,-0.41,9.86,-1.26,2.38,-0.53,-1.18,2.43,9.93,-0.56,2.18,-0.82,1.00,2.44,9.72,2.45,2.30,-0.86,0.20,4.67,9.09,1.03,2.07,-1.25,0.04,0.94,0.14,-0.02,-6.71,-133.67,19.04,R
19.921,6,250,255,255,222,7.38,2.39,3.27,-1.74,1.56,1.27,-2.26,8.21,-3.30,2.50,-0.35,-1.00,2.19,8.68,-2.87,2.44,-0.88,1.27,1.51,9.36,0.02,2.81,-1.17,0.24,3.86,9.09,-0.78,2.59,-1.83,-0.08,1.10,0.08,0.13,-13.06,-168.33,21.85,R
19.971,10,250,255,255,222,6.61,-0.75,6.90,-2.25,1.86,1.74,-1.57,8.46,-3.46,2.81,-0.38,-1.32,2.90,8.92,-3.25,2.71,-0.73,1.26,2.50,9.75,-0.69,2.98,-0.86,0.37,4.57,9.28,-2.16,2.74,-1.39,0.10,0.95,0.20,0.25,4.21,-171.39,23.99,R
20.023,12,250,255,255,222,5.83,-1.44,7.12,-1.86,1.74,1.86,-2.41,7.45,-6.25,2.79,-0.24,-1.34,3.79,7.67,-5.55,2.85,-0.64,1.32,2.54,9.39,-3.20,3.19,-0.90,0.38,4.04,8.78,-4.30,3.01,-1.58,0.06,0.99,0.12,0.46,5.55,-180.97,26.31,R
20.074,11,248,255,255,223,2.64,-2.12,5.91,-2.45,2.41,2.02,-3.38,6.24,-6.49,3.29,-0.37,-1.68,3.85,6.41,-6.50,3.38,-0.90,1.43,2.44,8.76,-4.97,3.73,-1.11,0.31,3.83,7.92,-5.97,3.43,-1.85,-0.01,0.89,0.17,0.60,-3.17,-214.84,37.41,R
20.124,14,250,255,255,223,2.99,-4.30,8.89,-2.39,2.26,2.01,-4.05,4.71,-8.20,3.17,-0.39,-1.77,4.17,5.04,-8.21,3.27,-0.86,1.38,1.83,7.89,-6.66,3.59,-1.05,0.25,2.71,7.14,-7.35,3.27,-1.82,-0.11,0.69,0.19,0.74,-4.76,-202.09,37.23,R
20.176,15,250,255,255,224,1.42,-5.30,7.91,-2.53,1.96,2.25,-4.58,3.01,-8.04,3.15,-0.47,-1.80,3.71,3.43,-8.75,3.37,-0.91,1.25,1.90,6.23,-7.61,3.57,-1.02,0.15,2.56,5.24,-8.02,3.19,-1.69,-0.15,0.44,0.24,0.80,-3.42,-208.19,45.41,R
20.226,14,250,255,255,223,-0.21,-7.04,9.16,-2.14,2.00,1.93,-4.74,1.68,-8.84,2.69,-0.44,-1.54,3.71,2.26,-9.47,2.85,-0.66,1.06,1.43,5.10,-8.27,2.97,-0.79,0.18,0.96,3.92,-8.52,2.64,-1.33,-0.13,0.26,0.24,0.84,5.07,-173.40,35.28,R
20.277,15,249,255,255,223,-0.49,-7.54,5.58,-2.08,1.36,1.62,-4.70,-0.18,-7.51,2.55,-0.47,-1.70,2.53,-0.50,-8.13,2.86,-0.87,0.87,0.81,2.63,-8.44,3.06,-0.97,-0.06,0.61,1.97,-8.60,2.81,-1.62,-0.29,0.17,0.20,0.83,7.14,-172.67,51.70,R
20.328,14,249,255,255,223,-1.73,-8.33,3.58,-2.21,2.09,1.81,-4.90,-2.15,-7.59,2.63,-0.35,-1.55,2.90,-0.98,-8.53,2.71,-0.65,1.03,0.84,2.24,-8.67,2.87,-0.74,0.20,0.41,1.40,-8.79,2.50,-1.25,-0.08,-0.08,0.19,0.86,18.86,-169.43,34.30,R
20.379,17,249,255,255,223,-3.19,-7.48,4.12,-1.98,1.42,1.53,-5.76,-3.52,-8.34,2.39,-0.47,-1.48,1.93,-3.15,-8.65,2.66,-1.00,1.02,0.65,-0.05,-9.46,3.10,-1.29,0.03,0.14,-0.03,-9.15,2.88,-1.94,-0.16,0.10,0.12,0.90,0.06,-157.78,43.21,R
20.431,15,250,255,255,222,-4.01,-8.89,5.46,-2.30,1.69,1.85,-3.87,-2.91,-7.16,2.62,-0.48,-1.61,3.16,-2.59,-8.03,2.64,-0.70,0.89,0.70,0.00,-8.70,2.74,-0.71,0.06,-0.94,-1.10,-9.28,2.37,-1.15,-0.22,-0.38,0.16,0.84,15.75,-148.19,38.15,R
20.482,20,249,255,255,221,-4.87,-8.98,4.58,-2.19,1.22,1.83,-5.01,-5.60,-7.83,2.33,-0.62,-1.65,2.08,-4.42,-8.76,2.69,-0.87,0.82,0.19,-1.37,-9.45,2.79,-0.96,-0.12,-1.16,-1.93,-9.14,2.41,-1.43,-0.42,-0.40,0.12,0.88,-1.04,-159.42,53.77,R
20.532,17,248,255,255,223,-5.66,-7.63,0.93,-2.09,1.05,1.67,-4.18,-6.64,-5.92,2.20,-0.41,-1.78,1.39,-6.35,-7.81,2.62,-0.77,0.61,-0.83,-3.68,-9.30,2.71,-0.85,-0.23,-2.47,-3.96,-8.96,2.36,-1.39,-0.45,-0.51,0.11,0.82,4.33,-154.42,58.11,R
20.583,21,249,255,255,224,-6.50,-12.41,2.15,-2.05,1.18,1.78,-4.84,-8.84,-5.69,1.78,-0.46,-1.58,0.32,-7.30,-7.16,2.17,-0.68,0.42,-1.57,-4.77,-8.73,2.22,-0.71,-0.33,-3.29,-4.92,-8.26,1.90,-1.11,-0.58,-0.77,0.10,0.72,3.54,-117.07,55.11,R
20.635,17,248,255,255,222,-6.59,-9.86,-1.15,-1.68,0.67,1.49,-3.72,-8.46,-3.95,1.59,-0.33,-1.55,0.07,-7.97,-5.97,2.01,-0.54,0.33,-1.39,-5.74,-7.92,2.03,-0.49,-0.27,-3.17,-5.86,-7.14,1.70,-0.81,-0.50,-0.79,0.08,0.67,10.13,-106.81,47.24,R
20.685,17,249,255,255,221,-8.62,-7.78,-1.66,-1.28,1.00,1.27,-3.75,-9.05,-4.07,1.21,-0.23,-1.22,-0.17,-8.20,-5.25,1.53,-0.45,0.27,-1.48,-6.13,-6.76,1.48,-0.43,-0.28,-3.37,-5.77,-5.63,1.20,-0.60,-0.56,-0.86,0.03,0.55,2.26,-83.31,35.52,R
20.737,17,250,255,255,220,-6.79,-5.72,-2.99,-0.69,-0.07,0.73,-1.89,-9.01,-1.73,0.71,0.02,-0.99,-0.23,-8.62,-3.13,1.16,-0.10,0.02,-1.21,-7.12,-5.74,1.18,-0.00,-0.26,-3.05,-6.77,-5.43,1.10,-0.24,-0.36,-0.74,0.00,0.49,18.92,-52.43,35.03,R
20.787,16,248,255,255,221,-7.38,-6.29,-1.87,-0.67,0.51,0.86,-2.48,-9.60,-2.88,0.59,-0.12,-0.61,-0.33,-8.92,-3.71,0.85,-0.13,0.05,-1.42,-7.49,-6.19,0.76,-0.06,-0.17,-3.29,-7.21,-5.60,0.67,-0.19,-0.24,-0.93,-0.04,0.47,8.73,-46.45,24.90,R
20.839,15,249,255,255,222,-7.33,-6.56,-2.98,-0.17,0.05,0.31,-1.60,-9.91,-1.79,0.43,0.13,-0.45,-0.36,-9.17,-2.96,0.57,0.13,0.13,-1.48,-7.58,-5.54,0.57,0.18,0.05,-3.45,-7.17,-4.85,0.49,0.13,-0.06,-0.90,-0.03,0.45,17.88,-27.28,9.95,R
20.89,14,247,255,255,220,-7.44,-7.51,-2.09,0.24,0.14,0.15,-3.05,-10.15,-2.43,-0.07,0.28,-0.00,-1.21,-9.94,-3.91,-0.04,0.27,0.07,-1.91,-8.33,-6.50,0.04,0.19,0.20,-3.58,-8.00,-5.73,0.11,0.12,0.18,-0.83,-0.07,0.48,17.88,5.74,-6.53,R
20.94,15,249,255,255,221,-7.66,-5.58,-2.22,0.27,0.39,-0.08,-1.58,-8.49,-2.03,0.16,0.21,0.23,0.15,-8.35,-3.07,-0.12,0.36,0.24,-0.97,-6.87,-5.20,-0.18,0.42,0.34,-3.27,-6.64,-4.47,-0.16,0.51,0.29,-0.93,-0.00,0.41,17.27,1.83,-18.43,R
20.992,15,248,255,255,221,-6.98,-5.63,-2.77,0.77,0.06,-0.33,-2.76,-9.54,-2.48,-0.44,0.35,0.41,-0.98,-9.13,-3.99,-0.50,0.49,-0.01,-2.26,-7.54,-6.66,-0.40,0.32,0.20,-4.01,-6.85,-5.85,-0.22,0.23,0.19,-0.76,-0.07,0.47,18.19,26.79,-14.89,R
21.043,13,250,255,255,219,-7.09,-6.10,-2.73,0.33,0.62,-0.64,-2.37,-7.78,-1.32,-0.27,-0.37,0.41,0.35,-8.00,-3.25,-0.41,0.47,-0.02,-0.65,-6.54,-5.40,-0.52,0.62,0.18,-2.61,-6.50,-4.61,-0.44,0.92,0.18,-0.94,0.10,0.48,12.21,14.77,-16.48,R
21.094,15,247,255,255,220,-6.28,-10.12,-5.87,1.04,1.70,-0.81,-6.18,-8.92,-2.05,-1.45,-1.44,1.34,-0.97,-9.78,-5.43,-0.81,0.96,-0.21,-2.65,-7.28,-8.34,-0.63,0.70,0.25,-4.78,-7.09,-7.53,-0.38,0.52,0.25,-0.65,-0.11,0.59,47.49,57.31,-24.90,R
21.144,2,242,255,255,220,-7.17,-9.72,-6.51,-0.57,3.40,-2.31,-6.16,-7.53,-2.82,-2.33,-6.70,-0.44,-0.58,-8.70,-4.26,-0.38,0.00,-0.05,-1.55,-6.86,-6.34,-0.34,-0.02,0.44,-2.44,-6.71,-5.41,-0.22,0.26,0.38,-0.94,0.15,0.50,-1.65,-26.25,-32.53,R
21.196,0,227,255,255,222,-6.80,-8.28,-7.15,-0.10,4.07,-2.37,-6.60,-13.49,-8.14,-2.11,-18.70,0.28,-0.24,-10.21,-3.89,-0.62,1.39,-0.14,-2.05,-7.78,-7.10,0.43,0.32,1.63,-4.07,-7.12,-6.42,0.73,0.39,1.07,-0.67,0.01,0.52,63.90,-32.17,-56.70,R
21.247,0,92,255,255,223,-5.29,-6.73,-0.10,-0.51,5.50,-2.87,-3.50,-8.82,-0.34,-0.29,-9.30,-0.35,1.10,-7.67,-5.24,-0.95,1.67,-0.37,0.26,-4.22,-7.97,0.09,0.01,0.91,-4.97,-6.57,-6.71,0.27,0.59,0.85,-1.03,0.07,0.47,43.58,-0.61,-70.98,R
21.298,0,1,255,255,226,-0.63,-7.43,-3.27,-0.23,2.51,-1.74,-2.03,-10.57,0.04,0.12,-3.63,-0.92,0.87,-8.50,-4.74,-0.90,0.58,0.69,-1.48,-6.95,-6.05,0.72,-0.00,1.50,-3.04,-6.59,-5.95,0.31,0.33,1.52,-0.90,0.11,0.53,30.40,-17.82,-55.54,R
21.348,0,0,255,255,225,0.79,-8.63,-4.67,0.66,1.11,-0.69,-2.67,-8.28,5.58,0.29,-1.66,-1.10,0.45,-8.37,-6.48,-1.05,0.51,0.69,-3.11,-5.96,-7.81,0.10,0.11,1.06,-5.06,-5.32,-6.03,-0.17,0.23,0.96,-0.91,0.07,0.51,22.64,18.19,-51.39,R
21.399,0,0,255,255,224,0.75,-7.06,-5.62,0.35,0.79,-0.38,-2.46,-8.48,5.67,0.93,-0.89,-1.45,1.21,-7.63,-6.17,-0.78,0.25,0.68,-2.64,-6.71,-7.08,-0.09,0.18,0.96,-3.69,-6.27,-6.62,-0.03,0.28,0.88,-0.83,0.12,0.56,24.23,8.24,-43.95,R
21.451,0,0,255,255,225,0.98,-8.09,-4.35,0.32,0.72,0.03,-2.26,-8.45,6.18,0.60,-0.06,-0.94,1.17,-6.36,-6.23,-0.45,0.39,0.49,-9.33,-6.94,-6.99,0.15,0.38,0.25,-3.75,-5.19,-6.76,-0.02,0.45,0.37,-0.78,0.11,0.55,26.67,7.39,-27.53,R
21.502,0,0,255,255,224,0.71,-7.87,-4.69,0.30,0.33,0.55,-1.77,-9.81,5.57,0.55,0.35,0.02,1.21,-7.57,-6.55,-0.22,0.45,0.12,-2.99,-6.62,-7.47,-0.18,0.53,0.17,-3.91,-6.13,-7.13,-0.07,0.46,0.17,-0.73,0.07,0.57,28.02,22.09,-11.84,R
21.552,0,0,255,255,224,0.79,-8.51,-4.75,-0.09,0.31,0.28,-1.14,-6.62,3.93,0.05,0.25,-0.25,1.56,-7.21,-6.13,0.10,0.27,0.22,-2.17,-5.99,-6.82,0.19,0.33,0.13,-3.32,-5.74,-6.36,0.19,0.38,0.09,-0.79,0.12,0.61,18.62,-6.96,-3.85,R
21.604,0,0,255,255,224,0.79,-8.63,-3.68,0.30,0.16,0.50,-1.64,-7.17,6.85,0.63,0.22,-0.07,1.03,-7.38,-7.43,-0.18,0.39,-0.24,-3.39,-6.64,-7.98,-0.15,0.42,-0.10,-4.33,-6.28,-7.59,-0.07,0.29,-0.07,-0.79,0.07,0.60,27.89,18.98,3.72,R
21.654,0,0,255,255,225,1.23,-8.71,-5.32,-0.02,0.02,-0.11,-0.81,-8.38,4.78,-0.11,0.04,-0.22,1.24,-7.61,-6.36,0.12,-0.02,0.13,-2.67,-6.51,-6.97,0.15,0.03,0.07,-3.64,-5.88,-6.51,0.16,0.07,0.05,-0.85,0.16,0.60,0.43,-10.13,1.40,R
21.705,0,0,255,255,224,0.91,-8.61,-4.30,0.08,0.04,0.29,-0.96,-7.86,5.36,0.23,0.25,0.11,0.93,-7.76,-6.68,-0.07,0.29,-0.13,-3.15,-6.67,-7.34,-0.03,0.31,-0.07,-4.07,-6.29,-7.05,0.06,0.23,-0.05,-0.78,0.10,0.58,18.19,7.75,3.05,R
21.756,0,0,255,255,224,1.06,-8.71,-4.66,-0.13,0.03,0.12,-0.94,-8.54,5.02,-0.12,0.19,-0.07,-0.21,-7.26,-6.21,0.12,0.02,-0.19,-2.74,-6.44,-7.11,0.09,0.11,-0.01,-3.53,-5.96,-6.74,0.07,0.16,-0.05,-0.84,0.12,0.59,6.77,-6.71,2.01,R
21.807,0,0,255,255,224,0.83,-8.58,-4.66,0.06,-0.03,0.29,-1.60,-9.14,6.59,0.15,0.31,0.16,0.98,-7.96,-6.64,-0.06,0.17,-0.09,-3.00,-6.88,-7.52,-0.02,0.15,-0.01,-4.06,-6.25,-7.25,0.05,0.13,-0.03,-0.76,0.08,0.59,10.68,7.32,1.59,R
21.858,0,0,255,255,224,0.81,-9.30,-4.53,-0.04,0.00,-0.01,-0.93,-7.58,4.64,0.05,0.06,-0.11,1.20,-7.63,-6.27,-0.05,-0.01,0.03,-2.48,-6.66,-7.02,-0.03,0.09,0.01,-3.43,-6.21,-6.69,0.01,0.15,-0.02,-0.83,0.13,0.60,0.61,0.73,-0.49,R
21.91,0,0,255,255,223,0.87,-8.52,-4.85,0.10,0.11,0.11,-1.13,-7.85,5.09,-0.02,0.29,0.11,1.03,-7.48,-6.41,0.05,0.15,0.01,-2.79,-6.26,-7.27,0.05,0.13,-0.04,-3.70,-5.94,-6.86,0.03,0.09,-0.04,-0.79,0.09,0.58,9.28,0.92,-0.85,R
21.96,0,0,255,255,224,0.77,-8.92,-4.37,0.01,-0.03,-0.01,-1.59,-7.92,6.07,0.06,-0.10,0.03,1.33,-7.62,-6.50,-0.04,-0.09,-0.09,-2.34,-6.61,-7.27,-0.09,-0.04,-0.11,-3.38,-6.36,-6.81,-0.09,0.00,-0.12,-0.83,0.09,0.61,-6.10,3.30,1.95,R
22.012,0,0,255,255,225,0.72,-8.46,-5.28,0.06,0.00,0.08,-1.29,-9.10,4.64,0.00,0.20,-0.03,1.31,-7.86,-6.13,0.03,0.13,0.08,-2.54,-6.61,-7.11,0.08,0.14,0.08,-3.84,-6.12,-6.86,0.10,0.13,0.06,-0.80,0.09,0.59,8.79,-2.81,-1.53,R
22.062,0,0,255,255,224,0.85,-9.55,-3.79,0.04,0.03,0.09,-1.66,-8.72,6.14,0.02,0.13,0.14,1.21,-7.67,-6.26,-0.07,0.01,-0.05,-2.57,-6.64,-7.06,-0.12,0.07,-0.05,-3.71,-6.40,-6.96,-0.09,0.08,-0.06,-0.80,0.09,0.59,-1.22,6.04,0.43,R
22.114,0,0,255,255,223,0.78,-8.51,-4.79,-0.12,0.00,0.05,-1.20,-9.23,4.41,-0.07,0.02,-0.10,1.30,-7.50,-5.91,0.04,0.06,0.06,-2.30,-6.29,-6.85,0.07,0.09,0.04,-3.62,-6.06,-6.62,0.03,0.13,0.04,-0.83,0.12,0.58,5.00,-3.66,-1.22,R
22.166,0,0,255,255,223,0.72,-8.87,-4.25,0.11,0.07,0.03,-1.48,-8.41,5.34,-0.09,0.17,0.29,1.31,-7.62,-6.03,-0.03,0.06,-0.04,-2.39,-6.60,-7.08,-0.05,0.11,-0.03,-3.38,-6.28,-6.83,-0.01,0.12,-0.03,-0.79,0.10,0.59,2.81,2.62,0.31,R
22.216,0,0,255,255,225,0.58,-8.74,-4.69,-0.05,0.09,0.15,-1.41,-7.83,4.78,0.01,0.17,-0.10,1.32,-7.44,-6.22,-0.01,0.12,0.05,-2.52,-6.37,-6.98,0.01,0.12,0.03,-3.58,-5.89,-6.74,0.02,0.12,-0.01,-0.81,0.09,0.58,7.08,-0.18,-1.53,R
22.266,0,0,255,255,224,0.59,-8.70,-4.74,0.03,-0.03,0.12,-1.50,-7.96,5.27,0.06,0.07,0.02,1.19,-7.70,-6.14,0.00,0.05,-0.06,-2.39,-6.59,-7.18,0.02,0.04,-0.06,-3.35,-6.18,-6.75,0.04,0.04,-0.04,-0.77,0.08,0.59,3.66,0.49,2.44,R
22.317,0,0,255,255,224,0.61,-8.75,-4.58,-0.02,0.02,0.03,-1.54,-8.17,5.54,0.00,0.04,0.03,1.44,-7.77,-6.14,-0.00,-0.00,0.02,-2.26,-6.63,-7.14,-0.02,0.03,0.01,-3.31,-6.22,-6.78,-0.00,0.06,-0.00,-0.80,0.10,0.61,0.85,0.67,-0.12,R
22.369,0,0,255,255,225,0.53,-8.50,-4.66,-0.06,0.03,0.14,-1.36,-7.25,4.98,-0.01,0.16,0.09,1.29,-7.64,-6.15,0.01,0.12,-0.06,-2.47,-6.43,-7.22,0.04,0.11,-0.05,-3.56,-6.00,-6.91,0.06,0.10,-0.05,-0.79,0.10,0.60,7.02,0.61,2.08,R
22.419,0,0,255,255,224,0.78,-9.70,-4.41,0.04,-0.02,-0.05,-1.70,-9.23,6.09,-0.01,0.01,0.01,1.33,-7.91,-6.27,-0.07,-0.07,-0.00,-2.27,-6.98,-7.18,-0.06,-0.03,0.01,-3.38,-6.60,-7.05,-0.02,-0.02,0.01,-0.79,0.10,0.61,-5.00,1.04,-0.12,R
22.47,0,0,255,255,224,0.42,-8.56,-4.44,-0.08,0.09,0.08,-1.47,-7.10,5.20,0.11,0.07,-0.24,1.35,-7.36,-6.19,-0.03,0.12,0.01,-2.33,-6.26,-7.16,0.01,0.13,0.01,-3.43,-6.04,-6.77,0.02,0.14,-0.04,-0.82,0.09,0.59,7.81,-0.67,-0.06,R
22.522,0,0,255,255,223,0.87,-9.50,-4.83,-0.06,-0.01,0.01,-1.54,-8.96,5.36,-0.17,0.02,0.14,1.26,-8.09,-6.12,0.05,-0.11,0.05,-2.28,-6.71,-7.08,0.11,-0.13,0.03,-3.26,-6.23,-6.73,0.11,-0.14,0.04,-0.78,0.09,0.60,-3.97,-5.74,0.31,R
22.572,0,0,255,255,225,0.14,-8.05,-4.30,-0.03,0.06,0.04,-1.49,-7.95,5.20,0.02,0.11,0.02,1.38,-7.24,-6.05,-0.05,0.13,-0.06,-2.28,-6.30,-7.00,-0.05,0.18,-0.05,-3.46,-6.04,-6.77,-0.06,0.22,-0.07,-0.82,0.10,0.58,6.84,2.50,0.18,R
22.623,0,0,255,255,225,0.91,-9.27,-5.16,-0.03,-0.01,0.07,-1.70,-8.80,5.85,-0.14,0.01,0.14,1.30,-7.97,-6.25,0.07,-0.11,0.05,-2.33,-6.60,-7.15,0.09,-0.15,0.03,-3.27,-6.22,-6.73,0.09,-0.14,0.03,-0.78,0.07,0.60,-2.56,-4.82,0.92,R
22.674,0,0,255,255,223,0.22,-7.81,-4.58,-0.06,0.04,0.02,-1.61,-8.45,5.03,0.01,0.13,-0.01,1.38,-7.43,-5.87,-0.03,0.11,-0.01,-2.37,-6.40,-6.91,-0.01,0.15,0.01,-3.55,-6.02,-6.63,-0.00,0.18,-0.02,-0.82,0.11,0.58,5.19,0.12,-1.22,R
22.725,0,0,255,255,224,0.66,-8.94,-4.83,0.01,-0.02,0.05,-1.80,-8.76,5.83,-0.02,-0.01,-0.11,1.40,-7.90,-6.26,0.03,-0.06,0.06,-2.50,-6.64,-7.18,0.02,-0.07,0.04,-3.44,-6.21,-6.90,0.04,-0.08,0.02,-0.80,0.07,0.59,-1.89,-4.64,0.92,R
22.776,0,0,255,255,222,0.23,-8.32,-4.74,-0.05,0.04,0.05,-1.46,-8.82,4.88,0.01,0.11,0.02,1.33,-7.78,-6.08,-0.07,0.10,-0.03,-2.47,-6.66,-7.15,0.00,0.12,0.02,-3.62,-6.29,-6.95,0.04,0.11,0.01,-0.81,0.09,0.59,6.41,2.14,-1.53,R
22.827,0,0,255,255,222,0.60,-9.10,-4.36,0.01,0.05,-0.01,-1.68,-8.32,5.70,0.02,-0.02,-0.09,1.35,-7.45,-6.26,-0.04,-0.04,0.03,-2.37,-6.27,-7.11,-0.08,-0.01,-0.02,-3.42,-6.16,-6.86,-0.12,0.01,-0.06,-0.81,0.08,0.59,-2.26,0.43,0.37,R
22.878,0,0,255,255,225,0.37,-8.25,-5.43,0.14,-0.01,-0.06,-1.21,-8.36,3.96,-0.04,0.13,0.01,1.36,-8.16,-5.86,0.04,0.06,0.07,-2.35,-6.81,-7.07,0.11,0.05,0.05,-3.45,-6.08,-6.64,0.14,0.04,0.06,-0.78,0.09,0.59,4.03,-3.91,-2.20,R
22.929,0,0,255,255,223,0.46,-8.75,-4.14,-0.07,0.06,0.01,-1.79,-8.67,5.83,-0.02,0.12,0.03,1.32,-7.64,-6.25,-0.07,-0.01,-0.03,-2.38,-6.67,-7.17,-0.07,0.00,-0.03,-3.33,-6.47,-6.79,-0.04,0.01,-0.03,-0.81,0.09,0.59,-0.61,2.44,0.31,R
22.98,0,0,255,255,223,0.33,-8.34,-4.71,-0.01,0.03,0.05,-1.65,-8.15,5.13,0.03,0.11,-0.11,1.30,-7.77,-5.96,-0.01,0.07,0.05,-2.37,-6.56,-7.14,0.06,0.06,0.04,-3.60,-6.04,-6.82,0.07,0.05,0.02,-0.80,0.08,0.58,5.19,-0.98,-1.46,R
23.031,0,0,255,255,223,0.51,-8.60,-4.64,-0.01,0.02,-0.02,-1.76,-9.03,5.39,-0.07,0.08,0.07,1.33,-7.86,-6.13,-0.03,-0.03,0.01,-2.42,-6.72,-7.19,0.01,-0.02,0.00,-3.39,-6.34,-6.86,0.02,-0.02,-0.01,-0.80,0.09,0.60,-1.04,-0.67,-0.43,R
23.083,0,0,255,255,223,0.37,-8.56,-4.66,-0.01,0.01,0.03,-1.63,-8.30,4.98,0.02,0.07,-0.07,1.43,-7.79,-6.08,0.01,0.03,0.02,-2.26,-6.62,-7.14,0.00,0.06,-0.01,-3.43,-6.12,-6.72,0.01,0.06,-0.01,-0.81,0.08,0.59,3.11,0.24,0.24,R
23.134,0,0,255,255,223,0.55,-8.85,-4.80,0.05,-0.01,-0.05,-1.68,-8.55,5.35,-0.01,-0.02,-0.00,1.63,-7.92,-6.03,-0.03,-0.07,-0.05,-2.32,-6.80,-7.11,-0.01,-0.02,0.01,-3.27,-6.36,-6.73,0.00,-0.01,0.01,-0.80,0.10,0.59,-2.20,-0.37,-1.34,R
23.185,0,0,255,255,225,0.38,-8.75,-4.58,-0.05,0.03,0.08,-1.50,-8.22,4.87,-0.03,0.09,0.01,1.39,-7.66,-6.00,0.01,0.05,0.02,-2.21,-6.63,-7.08,0.02,0.08,0.01,-3.39,-6.26,-6.70,0.04,0.08,0.00,-0.80,0.08,0.58,4.33,-0.73,-0.73,R
23.235,0,0,255,255,225,0.41,-9.17,-4.43,0.06,0.01,0.02,-1.84,-8.08,5.72,0.05,0.04,-0.04,1.30,-7.88,-6.38,-0.07,-0.04,-0.00,-2.44,-6.77,-7.35,-0.02,-0.06,0.01,-3.21,-6.29,-6.81,-0.01,-0.08,0.00,-0.78,0.06,0.59,0.43,2.08,0.37,R
23.287,0,0,255,255,223,0.07,-8.11,-4.60,-0.03,0.03,-0.06,-1.53,-8.28,4.43,-0.03,0.08,-0.06,1.54,-7.49,-5.66,0.00,0.07,0.02,-2.16,-6.42,-6.94,0.01,0.12,-0.01,-3.32,-6.03,-6.55,0.01,0.15,-0.03,-0.82,0.10,0.58,2.50,-1.22,-0.92,R
23.337,0,0,255,255,223,0.57,-8.85,-4.71,0.13,-0.00,0.03,-1.66,-8.25,5.65,0.05,0.02,0.00,1.26,-7.80,-6.28,-0.05,-0.01,-0.01,-2.58,-6.64,-7.17,-0.04,-0.02,-0.02,-3.57,-6.24,-6.87,-0.03,-0.05,-0.01,-0.79,0.07,0.59,0.73,1.59,1.34,R
23.389,0,0,255,255,223,0.02,-8.15,-4.56,-0.01,-0.02,-0.05,-1.74,-8.96,4.52,-0.16,0.21,0.24,1.55,-7.67,-5.72,-0.04,0.03,-0.06,-2.12,-6.76,-7.01,-0.03,0.09,-0.04,-3.28,-6.34,-6.83,0.01,0.10,-0.03,-0.81,0.09,0.59,0.06,0.67,1.40,R
23.439,0,0,255,255,224,0.43,-8.73,-4.35,-0.08,-0.01,0.10,-1.75,-8.46,5.40,0.03,0.02,-0.15,1.41,-7.22,-6.10,0.02,-0.04,0.06,-2.21,-6.21,-6.93,-0.07,0.04,-0.02,-3.32,-6.04,-6.68,-0.13,0.08,-0.04,-0.84,0.09,0.58,0.98,3.11,2.01,R
23.49,0,0,255,255,222,0.44,-8.83,-4.66,0.03,-0.04,-0.06,-1.86,-8.63,5.23,0.02,-0.10,0.09,1.44,-7.93,-6.09,-0.07,-0.11,-0.09,-2.15,-6.62,-7.13,-0.04,-0.11,-0.06,-3.08,-6.13,-6.76,-0.02,-0.10,-0.04,-0.77,0.06,0.61,-6.65,-1.22,2.32,R
23.541,0,0,255,255,223,0.11,-8.80,-3.93,0.18,-0.10,0.02,-1.97,-8.82,5.32,0.18,0.05,0.02,1.47,-7.64,-6.10,-0.21,-0.03,-0.13,-2.16,-6.65,-7.24,-0.26,0.05,-0.09,-3.42,-6.09,-6.79,-0.22,0.07,-0.08,-0.77,0.07,0.59,-2.08,14.95,2.69,R
23.593,0,0,255,255,223,0.53,-9.51,-4.60,0.29,-0.11,-0.08,-1.68,-7.81,5.22,0.30,0.28,-0.01,1.31,-7.23,-6.30,-0.39,-0.07,-0.28,-2.39,-5.97,-7.16,-0.49,0.04,-0.21,-3.40,-5.18,-6.68,-0.47,0.08,-0.19,-0.80,0.07,0.58,-7.57,20.87,4.15,R
23.644,0,0,255,255,224,0.13,-9.89,-3.86,0.72,-0.31,-0.32,-2.20,-8.43,5.61,0.69,-0.03,0.26,1.96,-7.28,-6.40,-0.78,-0.25,-0.63,-1.52,-6.05,-7.42,-1.00,0.10,-0.41,-2.53,-5.75,-7.06,-0.96,0.23,-0.32,-0.80,0.06,0.64,-21.12,48.58,3.85,R
23.695,0,0,255,255,223,-0.55,-8.50,-3.15,1.21,-0.28,-0.07,-2.24,-7.17,5.83,1.25,-0.02,0.42,2.65,-5.44,-6.49,-1.17,0.16,-1.01,-0.77,-4.12,-7.17,-1.55,0.69,-0.59,-1.73,-3.79,-6.33,-1.66,1.10,-0.53,-0.84,0.11,0.65,-3.48,86.00,3.36,R
23.746,0,0,255,255,224,-1.82,-10.63,0.96,3.19,-0.70,0.66,-3.48,-4.73,7.45,3.54,0.08,1.67,4.83,-3.31,-7.33,-3.21,0.85,-2.95,1.65,-2.71,-8.13,-4.14,2.14,-1.54,0.84,-2.96,-7.81,-3.99,2.84,-1.38,-0.81,0.06,0.63,10.99,253.72,24.78,R
23.796,0,0,255,255,223,-2.57,-8.79,-0.57,5.13,-0.93,1.39,-3.66,-4.12,7.54,5.13,-0.05,2.86,6.11,-2.15,-7.74,-4.27,1.90,-3.90,2.93,-0.84,-9.44,-5.05,3.41,-1.83,3.03,-0.78,-8.71,-4.76,4.40,-1.58,-0.52,0.08,0.73,67.63,325.38,51.57,R
23.848,0,0,255,255,224,-0.97,-13.13,1.52,7.07,-0.75,1.96,-4.01,-5.85,8.62,6.91,-0.28,2.57,4.84,-2.95,-9.13,-5.60,1.75,-4.00,1.04,-2.10,-11.06,-5.88,2.99,-1.36,0.38,-2.66,-12.20,-4.91,3.28,-1.13,0.15,-0.24,0.58,62.87,422.30,35.16,R
23.899,0,0,255,255,225,-0.41,-5.64,-1.74,2.36,-0.59,-0.01,-2.91,-1.15,8.60,1.69,-1.12,0.69,3.94,-1.16,-7.37,-0.93,-0.43,-0.92,2.55,2.15,-7.71,-1.25,-0.12,-0.56,3.32,2.94,-6.08,-1.47,0.22,-0.38,-0.15,0.05,0.88,-42.79,25.09,13.31,R
23.95,0,0,255,255,222,-0.88,-8.52,6.58,3.84,-0.15,0.11,-0.08,-0.15,3.33,4.13,-0.26,0.30,4.58,2.55,-6.06,-3.92,1.04,-2.01,2.03,2.22,-7.63,-4.02,2.10,-0.32,1.42,1.53,-9.48,-3.34,2.66,-0.19,0.41,0.18,0.74,19.96,281.07,-21.30,R
24.0,0,0,255,255,222,-0.33,-5.76,3.38,2.30,0.34,0.88,-1.74,2.15,9.18,2.23,-0.13,0.37,5.27,3.17,-8.30,-1.53,1.05,-0.73,3.50,5.36,-8.79,-1.42,1.32,0.08,4.16,5.29,-8.19,-1.41,1.62,0.16,0.22,0.02,1.01,46.26,77.94,-14.40,R
24.051,0,0,255,255,223,-1.42,-7.28,9.52,2.96,0.29,0.51,-2.49,5.26,9.12,2.91,0.27,-0.05,4.67,3.57,-7.48,-2.33,0.58,-1.03,2.54,3.51,-8.50,-1.95,0.77,-0.14,3.65,3.07,-9.61,-1.34,0.65,-0.07,0.97,-0.15,0.85,23.74,168.09,-17.03,R
24.102,0,0,255,255,222,-2.31,-4.39,7.06,-0.28,0.13,-0.14,-2.33,5.50,8.32,-0.37,-0.21,-0.24,6.47,6.00,-6.45,0.29,-0.19,0.40,5.54,7.32,-6.76,0.27,-0.22,0.24,6.52,6.57,-6.60,0.02,-0.05,0.26,0.45,-0.06,0.95,-13.73,-46.69,-10.44,R
24.153,0,0,255,255,222,-2.83,-6.51,10.68,0.98,0.30,0.08,-3.13,6.56,10.35,1.11,0.15,-0.14,5.96,6.06,-7.13,-0.98,0.24,-0.23,3.99,6.12,-7.88,-0.84,0.27,0.11,4.59,4.97,-8.66,-0.65,0.16,0.09,0.80,-0.17,0.91,10.62,70.13,-20.39,R
24.204,0,0,255,255,222,-2.59,-4.19,6.97,-0.30,-0.05,-0.48,-2.07,6.77,6.47,-0.94,-0.11,-0.15,6.45,5.53,-5.82,0.77,-0.36,0.44,5.48,6.45,-6.22,0.69,-0.40,0.07,6.45,5.90,-6.09,0.49,-0.34,0.15,0.56,-0.06,0.92,-13.79,-60.18,-2.69,R
24.256,0,0,255,255,222,-2.85,-6.41,10.34,0.42,0.19,0.18,-2.62,5.14,8.55,0.73,0.18,-0.07,5.84,5.35,-6.51,-0.71,0.29,-0.23,4.07,5.34,-7.39,-0.57,0.38,0.07,4.29,4.30,-8.07,-0.39,0.35,0.08,0.63,-0.13,0.89,16.85,48.58,-7.75,R
24.306,0,0,255,255,220,-2.30,-5.35,7.69,-0.05,0.02,-0.21,-2.64,4.93,7.92,-0.38,-0.04,-0.17,5.97,4.58,-6.25,0.25,-0.21,0.25,4.50,5.25,-7.11,0.38,-0.30,0.11,5.09,4.67,-7.24,0.39,-0.39,0.14,0.60,-0.12,0.90,-9.22,-31.25,-4.94,R
24.357,0,0,255,255,222,-2.80,-5.73,9.64,-0.15,0.11,-0.16,-2.83,5.15,8.18,0.06,-0.05,-0.21,6.21,6.14,-5.86,-0.21,-0.07,0.04,4.85,6.03,-6.37,-0.24,0.00,0.06,5.17,4.82,-6.89,-0.24,0.05,0.05,0.53,-0.12,0.84,-2.32,17.46,-8.12,R
24.408,0,0,255,255,222,-2.51,-4.53,7.25,-0.27,-0.03,-0.30,-3.09,5.51,8.20,-0.67,-0.21,-0.15,5.75,4.20,-6.13,0.61,-0.50,0.41,4.27,4.87,-7.13,0.74,-0.71,0.08,5.03,4.49,-7.17,0.71,-0.89,0.09,0.70,-0.19,0.87,-24.23,-56.70,-0.92,R
24.459,0,0,255,255,222,-3.04,-5.61,9.54,-0.60,0.03,-0.28,-2.32,4.69,7.53,-0.31,-0.06,-0.15,6.43,6.30,-5.71,0.00,-0.04,0.10,5.05,6.19,-6.41,-0.11,0.11,0.07,5.32,4.88,-6.84,-0.20,0.29,0.06,0.39,-0.02,0.87,1.59,5.86,-3.91,R
24.51,0,0,255,255,222,-1.88,-5.66,7.48,0.21,0.13,-0.08,-3.40,5.45,10.51,-0.19,0.01,-0.08,5.14,3.70,-7.20,0.29,-0.29,0.26,3.37,4.64,-8.05,0.50,-0.57,0.07,4.19,4.14,-8.15,0.56,-0.83,0.05,0.71,-0.20,0.88,-12.70,-29.97,-1.71,R
24.562,0,0,255,255,223,-2.64,-6.00,8.84,-1.02,-0.09,-0.54,-2.36,4.64,7.96,-0.89,-0.32,-0.25,6.35,6.01,-6.03,0.50,-0.45,0.26,5.09,6.19,-6.44,0.31,-0.38,-0.03,5.50,4.91,-6.67,0.13,-0.22,-0.04,0.37,-0.01,0.89,-23.74,-35.03,0.98,R
24.613,0,0,255,255,219,-2.34,-5.74,8.00,0.24,0.09,0.13,-2.43,4.88,8.37,0.30,0.19,-0.06,5.41,4.26,-6.90,-0.21,0.17,-0.04,3.32,4.81,-7.73,-0.08,0.11,0.05,3.70,4.06,-8.07,0.03,-0.00,0.01,0.54,-0.10,0.88,8.91,13.37,-2.87,R
24.663,0,0,255,255,222,-2.07,-5.94,7.79,-0.35,-0.07,-0.25,-2.74,3.94,8.96,-0.50,-0.17,-0.05,5.77,4.72,-6.75,0.32,-0.35,0.16,4.25,5.29,-7.22,0.28,-0.38,-0.04,4.76,4.36,-7.35,0.20,-0.37,-0.04,0.46,-0.06,0.89,-15.69,-25.76,2.08,R
24.715,0,0,255,255,223,-2.37,-5.96,8.23,-0.11,-0.01,0.00,-2.16,3.81,7.70,0.08,0.03,-0.05,5.70,4.52,-6.50,-0.13,0.08,-0.03,3.90,4.91,-7.38,-0.12,0.14,0.02,4.00,3.89,-7.88,-0.06,0.14,0.01,0.48,-0.07,0.90,4.09,8.00,-0.49,R
24.766,0,0,255,255,222,-1.48,-6.70,7.16,-0.17,0.00,-0.18,-3.11,4.76,9.96,-0.45,-0.17,-0.15,5.21,3.47,-7.48,0.46,-0.49,0.27,3.34,4.39,-8.09,0.57,-0.74,-0.02,3.86,3.90,-8.25,0.56,-0.95,-0.04,0.57,-0.14,0.90,-18.49,-33.69,1.53,R
24.816,0,0,255,255,221,-2.52,-6.00,8.32,-0.83,-0.16,-0.47,-2.06,3.45,7.33,-0.72,-0.21,-0.16,6.10,5.09,-6.23,0.37,-0.32,0.17,4.44,5.37,-6.80,0.20,-0.20,-0.05,4.53,4.22,-7.15,0.09,-0.09,-0.05,0.32,0.01,0.91,-19.23,-27.89,4.33,R
24.867,0,0,255,255,221,-1.52,-6.62,6.62,-0.07,0.01,-0.13,-2.90,3.17,9.67,-0.29,-0.07,-0.09,4.88,3.03,-7.45,0.36,-0.29,0.27,2.65,4.08,-8.25,0.52,-0.53,0.04,3.02,3.55,-8.52,0.55,-0.76,-0.01,0.55,-0.11,0.90,-9.22,-22.34,0.61,R
24.918,0,0,255,255,221,-1.92,-6.54,7.51,-0.97,-0.18,-0.47,-1.94,2.76,7.90,-1.01,-0.23,-0.07,5.43,4.18,-6.84,0.61,-0.45,0.26,3.70,4.77,-7.35,0.48,-0.45,-0.05,3.88,3.78,-7.56,0.33,-0.36,-0.04,0.26,0.05,0.92,-25.09,-48.28,6.96,R
24.969,0,0,255,255,222,-1.33,-6.76,6.52,-0.22,0.02,0.00,-2.36,2.63,9.23,-0.29,0.09,-0.11,4.61,2.19,-7.93,0.33,-0.14,0.29,2.04,3.25,-8.91,0.56,-0.41,0.11,2.09,2.71,-9.37,0.63,-0.69,0.06,0.49,-0.08,0.92,-5.98,-34.06,-0.31,R
25.021,0,0,255,255,220,-1.45,-7.32,7.29,-1.31,-0.16,-0.63,-2.33,2.60,9.34,-1.34,-0.33,-0.29,5.55,4.19,-7.57,0.90,-0.71,0.41,3.66,5.01,-7.55,0.65,-0.74,-0.11,3.79,3.90,-7.50,0.36,-0.65,-0.11,0.16,0.07,0.94,-33.26,-55.42,6.65,R
25.071,0,0,255,255,221,-1.54,-6.72,6.28,0.04,-0.01,-0.01,-1.64,1.47,7.64,0.11,0.29,0.01,5.02,2.71,-7.56,-0.14,0.21,-0.05,2.47,3.62,-8.44,-0.10,0.26,0.02,2.32,2.84,-8.90,-0.03,0.22,0.01,0.29,0.04,0.95,13.61,13.06,-2.08,R
25.122,0,0,255,255,222,-0.81,-7.73,5.88,-0.45,-0.07,-0.23,-2.93,3.14,10.82,-0.79,-0.09,-0.20,4.71,2.16,-8.46,0.72,-0.59,0.33,2.42,3.67,-8.86,0.73,-0.82,-0.09,2.89,3.22,-8.63,0.59,-0.96,-0.12,0.36,-0.05,0.96,-28.26,-59.33,7.81,R
25.173,0,0,252,255,223,-1.55,-7.09,6.71,-0.42,-0.20,-0.42,-1.81,0.85,8.42,-0.37,0.01,-0.02,5.30,2.93,-7.59,0.10,-0.11,-0.01,2.84,3.69,-8.21,-0.02,0.05,-0.05,2.65,2.92,-8.51,-0.06,0.14,-0.04,0.14,0.12,0.98,-3.85,1.16,1.22,R
25.225,0,0,255,255,222,-0.66,-8.16,5.85,0.15,0.01,0.02,-2.80,2.34,10.49,-0.11,0.05,-0.18,4.16,1.43,-8.81,0.29,-0.28,0.18,1.36,2.92,-9.36,0.36,-0.48,-0.08,1.55,2.59,-9.39,0.35,-0.72,-0.12,0.38,-0.05,0.96,-9.16,-21.06,6.04,R
25.275,0,0,255,255,221,-1.00,-7.83,6.58,-0.75,-0.35,-0.57,-1.93,1.22,8.67,-0.89,-0.39,-0.03,5.29,2.83,-7.82,0.54,-0.68,0.01,3.17,3.79,-8.11,0.20,-0.50,-0.30,2.74,2.72,-8.16,0.04,-0.40,-0.23,0.10,0.12,0.96,-33.39,-31.49,11.90,R
25.326,0,0,255,255,222,-0.62,-7.54,5.57,0.52,0.05,-0.18,-2.21,0.99,9.62,0.01,0.23,0.01,3.73,1.18,-8.57,0.14,-0.23,0.28,0.93,2.72,-9.30,0.13,-0.26,-0.12,1.04,2.35,-9.37,0.18,-0.47,-0.10,0.25,0.04,0.95,-1.65,1.83,4.15,R
25.378,0,0,255,255,222,-0.63,-7.54,6.24,-0.01,-0.09,-0.57,-2.41,2.34,9.90,-0.69,-0.25,-0.06,3.94,2.49,-8.74,0.63,-0.94,0.20,2.04,3.59,-9.05,0.17,-0.71,-0.49,2.54,2.00,-9.01,-0.03,-0.60,-0.42,0.11,0.08,0.96,-35.40,-29.79,17.21,R
25.428,0,0,255,255,220,-0.39,-7.34,4.81,0.14,-0.23,-0.39,-2.06,-0.70,9.38,-0.26,0.29,0.11,3.79,0.92,-8.51,0.17,-0.20,0.13,1.15,2.87,-8.95,0.09,-0.11,-0.12,1.10,2.52,-9.08,0.13,-0.16,-0.12,0.20,0.12,0.98,-10.31,-3.72,3.91,R
25.48,0,0,255,255,218,-0.47,-8.03,7.33,0.09,0.08,-0.18,-2.87,0.93,10.92,-0.31,-0.01,-0.06,4.07,1.72,-9.56,0.30,-0.48,0.23,1.22,3.50,-9.59,0.03,-0.31,-0.31,1.04,2.73,-9.73,-0.11,-0.37,-0.29,0.16,0.09,1.03,-15.93,-7.81,10.56,R
25.531,0,1,255,255,222,-0.10,-8.28,5.74,-0.02,-0.27,-0.40,-1.97,-0.52,8.50,-0.36,0.22,0.11,3.90,0.91,-8.64,0.17,-0.16,0.16,1.15,2.83,-9.16,0.09,-0.10,-0.15,1.01,2.40,-9.53,0.21,-0.17,-0.11,0.21,0.20,1.03,-21.30,-10.13,7.39,R
25.581,0,6,255,255,220,-0.08,-7.12,6.61,-0.27,-0.08,0.34,-2.63,0.12,10.59,-0.32,-0.04,-0.09,3.53,1.19,-9.57,0.36,-0.18,0.24,0.61,3.46,-9.64,0.28,-0.18,-0.07,0.59,2.82,-9.79,0.16,-0.27,-0.10,0.13,0.15,1.00,-1.65,-19.17,5.07,R
25.632,0,4,255,255,220,0.09,-7.90,6.55,-0.12,-0.40,0.05,-2.11,1.20,9.40,-0.31,-0.21,-0.16,3.98,1.06,-9.19,0.25,-0.38,0.11,0.97,3.22,-9.14,0.14,-0.24,-0.20,1.11,2.73,-9.19,0.08,-0.22,-0.19,0.14,0.20,1.02,-19.59,-15.38,10.80,R
25.683,0,7,255,255,221,0.00,-8.42,5.66,0.05,-0.19,0.46,-2.05,-0.85,9.72,-0.07,0.11,0.14,3.31,0.48,-9.43,0.06,0.08,0.07,0.50,2.85,-9.64,0.01,0.09,-0.05,0.26,2.52,-9.70,0.05,0.06,-0.03,0.13,0.18,1.00,6.04,2.08,2.32,R
25.734,0,6,255,255,222,0.04,-8.61,6.26,0.02,-0.17,0.33,-2.71,-0.11,10.94,-0.06,-0.01,-0.03,3.33,0.63,-9.94,0.10,-0.29,0.01,0.82,3.04,-9.87,0.05,-0.20,-0.15,0.65,2.39,-9.65,-0.06,-0.19,-0.15,0.12,0.16,1.01,-9.34,-2.01,8.73,R
25.785,0,5,255,255,219,0.27,-8.91,4.65,0.14,0.03,-0.34,-1.84,-1.03,9.25,-0.07,-0.04,0.23,3.13,0.49,-8.89,-0.13,-0.10,-0.11,0.43,2.71,-8.99,-0.11,-0.02,-0.05,0.33,2.43,-8.97,-0.11,0.03,-0.01,0.13,0.22,0.97,-4.03,8.54,-0.43,R
25.837,0,6,255,255,220,0.03,-7.30,5.77,0.08,0.09,0.06,-1.89,-0.29,9.40,0.11,0.06,-0.03,3.42,0.63,-9.32,-0.09,-0.04,0.00,0.68,3.00,-9.46,-0.06,0.06,-0.00,0.33,2.68,-9.44,-0.09,0.10,0.01,0.11,0.21,0.99,3.91,5.68,-1.83,R
25.887,0,4,255,255,220,-0.18,-8.71,6.39,0.09,-0.30,0.35,-2.44,0.29,10.07,0.25,0.00,-0.19,3.47,0.50,-9.60,-0.15,-0.18,-0.01,0.86,3.02,-9.62,-0.15,-0.06,-0.05,0.52,2.56,-9.58,-0.12,-0.00,-0.03,0.16,0.17,1.01,-6.23,7.51,1.10,R
25.939,0,9,253,255,221,-0.08,-7.82,6.25,0.13,0.02,-0.12,-2.61,-0.18,10.40,0.02,0.22,0.04,2.99,0.88,-9.58,-0.10,-0.21,-0.08,0.31,3.34,-9.25,-0.13,-0.15,-0.10,0.26,2.92,-9.02,-0.22,-0.13,-0.09,0.14,0.18,0.97,-8.85,5.25,2.14,R
25.989,0,11,255,255,219,-0.08,-7.07,6.78,0.26,-0.25,-0.05,-2.39,0.11,9.46,0.16,0.43,-0.09,2.12,1.07,-8.97,-0.02,-0.68,0.19,-0.03,3.30,-8.92,-0.07,-0.44,-0.22,0.36,2.59,-9.01,-0.28,-0.42,-0.11,0.18,0.20,0.95,-19.04,12.33,3.97,R
26.04,0,24,255,255,222,-0.55,-7.85,5.94,-0.08,-0.09,-0.01,-2.54,1.41,9.32,0.05,0.20,-0.19,2.18,0.90,-9.31,0.03,-0.84,0.02,-0.45,3.07,-8.98,-0.04,-0.78,-0.29,-0.74,3.01,-8.83,-0.13,-0.87,-0.22,0.18,0.23,0.95,-20.51,-0.79,7.93,R
26.091,0,33,253,255,220,0.23,-8.12,6.59,-0.22,-0.29,-0.00,-2.66,-0.52,9.84,-0.14,0.20,0.01,0.95,0.81,-9.15,-0.04,-1.71,-0.04,-1.89,2.61,-7.94,0.33,-1.91,-0.57,-2.22,2.58,-7.53,-0.23,-2.39,-0.61,0.15,0.24,0.94,-33.81,-0.31,12.39,R
26.143,0,53,251,255,217,0.06,-8.91,5.55,-0.45,-0.44,-0.02,-2.58,0.47,9.59,-0.10,0.34,-0.05,0.60,0.99,-10.58,0.05,-2.73,-0.02,-2.47,2.67,-8.12,0.42,-2.34,-0.59,-2.27,3.01,-8.04,-0.15,-2.93,-0.51,0.13,0.28,0.95,-41.26,-9.09,16.36,R
26.194,0,73,248,255,213,0.12,-9.23,5.99,-0.44,-0.32,-0.50,-3.50,-0.42,10.13,-0.26,0.07,-0.09,-3.90,0.08,-8.81,0.57,-4.73,0.55,-7.29,1.57,-8.17,0.90,-4.62,-0.81,-7.16,3.68,-7.81,-0.55,-5.31,-0.65,0.13,0.26,0.90,-58.65,-18.92,15.08,R
26.245,0,97,241,255,204,0.10,-7.14,5.88,-0.35,-0.50,-0.69,-2.41,0.63,8.68,-0.63,-0.63,0.04,-1.46,0.93,-10.66,-0.21,-4.71,-0.09,-4.38,2.10,-9.73,0.76,-4.30,-0.64,-5.88,3.66,-7.91,-0.24,-4.57,-0.21,0.10,0.39,0.94,-57.01,-28.20,24.35,R
26.295,0,111,234,255,195,2.69,-7.95,6.18,-0.03,-0.15,-0.33,-2.78,-0.62,11.00,-0.47,-0.90,0.33,-8.82,1.27,-9.30,-1.08,-5.33,0.01,-10.54,2.24,-6.87,-0.30,-5.21,0.36,-9.59,4.45,-4.44,-1.21,-5.61,0.99,0.04,0.40,0.90,-48.46,-5.25,14.47,R
26.346,109,0,0,255,21,0.72,-6.22,5.43,0.50,-0.38,0.02,-1.09,-0.47,8.36,-0.57,-1.13,0.62,-11.98,1.30,-4.42,-0.84,-8.93,0.39,-12.96,0.90,-0.50,-0.44,-6.66,1.18,-12.28,2.52,1.86,0.10,-6.95,1.85,0.05,0.46,0.85,-10.25,8.61,12.15,R
26.398,6,123,215,255,173,0.24,-5.34,6.37,0.78,-0.19,1.06,-0.62,-1.50,8.78,-0.53,-1.42,0.63,-12.20,-1.52,-0.15,0.12,-11.60,0.90,-14.06,-2.95,-0.74,-0.93,-13.81,0.04,-14.99,7.58,2.70,-0.23,-8.99,2.08,-0.00,0.50,0.86,38.27,5.43,0.73,R
26.449,25,113,192,255,165,2.49,-7.95,1.94,1.19,-0.78,2.32,2.04,-4.30,3.60,-0.36,-1.09,0.67,-8.05,-0.24,0.63,0.41,-8.44,-0.08,-6.02,1.02,-1.72,1.08,-8.81,-0.39,-0.34,0.46,-8.26,-0.15,-8.09,0.65,-0.00,0.47,0.88,106.63,28.44,-19.04,R
26.499,40,90,153,255,143,-0.45,-10.04,7.90,1.49,0.00,2.23,-2.19,-2.05,13.26,1.13,0.28,-0.18,-6.75,0.38,5.13,0.43,-5.71,0.24,-5.87,1.36,5.34,0.52,-5.95,-0.20,-7.20,5.95,6.23,0.75,-7.89,-0.30,-0.01,0.26,0.84,121.52,57.56,-32.96,R
26.551,60,68,108,255,80,-0.44,-7.10,5.96,2.78,-1.00,1.40,0.27,-0.67,8.35,0.87,-0.23,-0.08,-3.71,1.89,6.65,0.24,-4.00,-0.13,-3.60,2.85,7.52,-0.14,-4.61,-0.93,-3.15,7.46,6.34,0.34,-4.41,-0.08,0.29,0.20,1.09,127.08,43.58,-41.44,R
26.601,51,51,72,255,18,0.12,-3.79,3.48,1.73,0.64,1.71,-1.06,-0.64,9.94,0.23,1.13,-0.83,-2.80,1.19,7.24,-0.64,-2.93,-1.06,-2.65,2.84,8.05,-1.46,-2.24,-1.31,0.28,7.33,6.68,-1.30,-2.28,-0.25,0.23,0.03,0.92,134.89,-23.99,-51.94,R
26.652,36,33,53,255,0,-0.33,-7.76,12.29,2.29,-1.42,0.84,-1.23,2.28,11.80,0.55,1.16,-0.08,-3.11,4.96,9.36,0.05,-1.36,-0.19,-2.26,3.62,10.54,-0.40,-0.59,0.18,0.02,5.09,7.49,0.35,0.28,-0.40,0.19,-0.14,0.98,85.39,59.33,-21.30,R
26.703,23,23,41,255,0,-0.48,-0.67,4.54,1.62,-0.06,0.33,-1.32,0.45,7.20,0.45,0.78,-0.20,-1.76,1.01,7.86,-0.53,-1.12,-0.08,-1.19,1.41,7.82,-0.92,0.05,-0.00,-0.55,4.50,7.20,-0.86,1.00,-0.64,0.35,-0.09,0.87,70.07,-2.32,-26.00,R
26.754,19,18,32,255,0,-1.93,-8.44,38.81,2.15,-2.96,-0.36,-1.13,-0.53,9.43,0.56,0.61,-0.21,-0.72,0.73,4.32,0.99,0.65,-0.26,-4.72,31.92,73.21,10.74,-8.05,-0.46,-4.75,-9.31,-14.26,-7.64,0.91,1.86,0.05,-0.24,0.99,72.81,61.16,-13.12,R
26.805,14,6,23,255,0,-2.43,0.86,10.22,-1.22,0.36,-0.21,-1.13,-1.84,2.08,-1.66,0.26,0.34,-1.58,9.43,2.44,0.43,-0.29,-0.29,-0.79,-0.14,8.84,-0.58,-0.26,0.03,-0.13,4.70,7.74,-1.33,0.06,0.18,0.23,0.07,1.03,-47.61,-53.47,18.92,R
26.857,12,2,21,255,0,-0.62,-3.23,10.08,0.08,0.16,-0.24,-2.03,-1.93,9.75,-0.01,-0.05,-0.10,-1.47,1.05,9.91,-0.21,-0.11,-0.03,-1.19,-0.32,9.69,-0.29,0.05,-0.04,-0.93,4.81,8.71,-0.16,0.04,-0.04,0.34,-0.38,1.02,4.94,6.65,-1.53,R
26.907,13,3,19,255,0,-1.18,-1.98,9.83,-0.24,0.12,-0.08,-2.19,0.26,9.58,0.05,-0.05,-0.06,-1.27,0.96,9.82,0.07,0.00,-0.04,-0.79,0.27,9.82,0.06,0.02,0.01,-0.75,4.89,8.74,0.12,0.03,0.00,0.25,-0.20,1.01,-6.96,9.58,3.17,R
26.958,12,3,18,255,0,-0.39,-2.53,9.54,0.05,0.07,0.01,-1.82,0.37,9.59,-0.03,0.07,-0.00,-1.36,1.14,9.67,-0.23,-0.02,0.03,-0.98,0.07,9.81,-0.10,0.05,-0.00,-0.92,5.08,8.72,-0.09,0.05,-0.03,0.30,-0.19,0.94,1.89,3.66,1.53,R
27.01,15,3,17,255,0,-0.42,-4.13,9.12,-0.10,0.20,-0.28,-1.90,0.60,9.62,0.04,0.06,-0.03,-1.31,1.27,9.62,-0.08,-0.04,-0.02,-0.81,0.45,9.84,-0.04,0.03,-0.05,-0.56,4.92,8.71,-0.04,0.01,-0.06,0.30,-0.14,0.99,-7.93,2.08,-1.22,R
27.06,17,2,16,255,0,-0.70,-2.39,9.68,0.01,0.13,-0.03,-1.86,0.43,9.66,-0.06,0.04,-0.03,-1.41,1.14,9.57,-0.14,0.02,-0.02,-1.08,-0.03,9.73,-0.07,0.07,-0.02,-0.91,4.84,8.75,-0.01,0.05,-0.05,0.27,-0.18,0.93,-2.14,2.81,1.34,R
27.111,20,3,15,255,0,-0.99,-2.67,9.58,0.00,0.17,-0.05,-1.92,0.38,9.62,0.05,0.09,-0.01,-1.44,1.07,9.68,0.04,-0.00,-0.00,-1.02,0.07,9.80,0.05,0.06,0.00,-0.84,5.19,8.60,0.05,0.04,0.01,0.29,-0.16,0.96,-6.47,7.20,0.49,R
27.162,21,3,13,255,0,-0.84,-2.32,9.62,-0.04,0.13,-0.12,-1.86,0.56,9.74,0.02,-0.00,-0.02,-1.27,1.12,9.67,-0.04,-0.02,-0.03,-1.06,0.04,9.78,-0.05,0.04,-0.03,-0.86,4.84,8.66,-0.04,0.04,-0.04,0.31,-0.16,0.94,-1.28,2.93,-1.10,R
27.213,22,4,15,255,0,-1.02,-2.73,9.54,-0.04,0.12,-0.08,-1.96,0.44,9.68,0.00,0.07,-0.02,-1.39,1.15,9.68,0.00,0.02,-0.00,-1.07,0.02,9.78,0.07,0.06,-0.01,-0.82,4.81,8.75,0.04,0.02,0.00,0.28,-0.16,0.95,-4.82,4.88,-0.79,R
27.265,22,3,10,255,0,-0.75,-2.97,9.47,-0.04,0.06,-0.06,-1.96,0.49,9.68,0.07,0.05,-0.02,-1.30,1.12,9.71,0.03,0.01,-0.01,-1.09,0.23,9.84,0.03,0.05,-0.03,-0.82,4.92,8.69,0.04,0.04,-0.02,0.32,-0.15,0.94,0.55,3.72,-0.55,R
27.315,23,4,13,255,0,-1.02,-2.59,9.60,-0.05,0.08,-0.07,-2.05,0.50,9.52,-0.01,0.08,-0.01,-1.29,1.14,9.61,-0.03,-0.01,-0.01,-1.04,0.17,9.84,0.03,0.02,-0.01,-0.78,4.89,8.71,0.04,0.03,-0.01,0.30,-0.15,0.95,-1.65,1.71,-1.22,R
27.366,23,2,15,255,0,-0.80,-3.06,9.51,-0.06,0.06,-0.04,-2.05,0.54,9.68,0.02,0.05,0.00,-1.34,1.16,9.65,-0.01,0.01,-0.00,-1.11,0.27,9.79,0.05,0.04,-0.02,-0.84,4.92,8.64,0.01,0.03,-0.02,0.31,-0.15,0.94,-0.67,2.26,-1.22,R
27.418,23,3,12,255,0,-1.04,-2.48,9.73,-0.05,0.06,-0.07,-2.05,0.52,9.67,-0.00,0.04,-0.02,-1.31,1.13,9.65,-0.04,-0.01,-0.01,-1.07,0.27,9.82,0.02,0.05,-0.03,-0.82,4.87,8.67,-0.01,0.02,-0.02,0.31,-0.15,0.96,-1.53,0.06,-0.92,R
27.469,23,3,16,255,0,-0.97,-2.86,9.55,0.01,0.05,-0.01,-1.98,0.56,9.75,0.01,0.04,-0.01,-1.32,1.13,9.70,-0.01,0.01,-0.01,-1.12,0.18,9.82,0.02,0.03,-0.01,-0.87,4.83,8.69,0.02,0.03,-0.01,0.31,-0.15,0.95,-0.98,1.40,-0.92,R
27.519,23,3,12,255,0,-0.91,-3.66,9.36,-0.07,0.02,-0.08,-2.03,0.61,9.62,0.02,0.04,-0.00,-1.26,1.14,9.68,-0.02,-0.01,-0.00,-1.12,0.34,9.81,0.02,0.02,-0.02,-0.81,5.01,8.63,-0.06,0.02,-0.01,0.32,-0.14,0.96,0.06,0.31,-1.16,R
27.57,24,4,12,255,0,-1.02,-2.76,9.61,-0.02,0.04,-0.01,-2.00,0.51,9.68,0.01,0.04,0.00,-1.31,1.07,9.69,-0.01,0.01,0.00,-1.17,0.23,9.81,0.03,0.02,-0.00,-0.91,4.89,8.66,0.07,0.03,-0.02,0.30,-0.15,0.94,-1.10,1.16,-0.92,R
27.621,26,5,18,255,0,-1.00,-3.07,9.52,-0.03,0.02,-0.04,-1.97,0.59,9.60,0.03,0.02,0.00,-1.26,1.17,9.65,-0.01,-0.01,-0.00,-1.22,0.25,9.80,0.02,0.02,-0.01,-0.86,4.92,8.64,0.03,0.03,-0.01,0.32,-0.14,0.95,-0.31,0.67,-1.46,R
27.672,26,1,13,255,0,-0.96,-2.83,9.52,-0.04,0.04,-0.07,-1.96,0.56,9.65,0.05,0.06,0.00,-1.33,1.20,9.69,0.02,0.02,0.00,-1.11,0.24,9.83,0.10,0.04,-0.02,-0.85,4.92,8.63,0.09,0.02,0.01,0.31,-0.15,0.95,-0.61,0.61,-1.77,R
27.724,26,6,15,255,0,-1.00,-2.94,9.51,-0.05,0.05,-0.05,-2.01,0.50,9.68,0.07,0.03,0.02,-1.31,1.17,9.80,0.03,-0.00,0.02,-1.30,0.14,9.81,0.12,-0.01,0.00,-1.32,3.98,9.43,0.32,-0.11,-0.06,0.31,-0.16,0.93,2.75,-4.21,-3.17,R
27.774,27,5,15,255,1,-0.92,-2.93,9.48,-0.35,0.19,-0.39,-2.06,0.83,9.84,0.06,0.09,-0.02,-1.51,1.02,9.77,0.48,-0.05,-0.05,-1.01,0.53,9.61,1.05,-0.10,-0.42,-0.79,5.39,8.03,0.55,-0.37,-0.33,0.33,-0.16,0.98,0.00,-13.85,-7.69,R
27.825,28,6,16,255,3,-1.24,-3.22,9.45,-0.18,0.18,-0.15,-2.07,0.76,9.87,0.14,-0.08,-0.05,-1.62,1.41,9.97,0.38,-0.10,0.01,-1.00,-3.10,9.80,0.24,-0.18,-0.49,-3.06,0.53,15.50,0.45,-2.25,-1.30,0.28,-0.18,0.95,-2.62,-1.65,-4.52,R
27.876,28,6,13,255,0,-1.25,-3.31,9.41,-0.11,0.21,-0.22,-2.13,-3.35,9.98,-0.81,-0.05,-0.68,-1.19,0.76,9.54,0.12,0.06,-0.05,-1.16,9.88,7.42,0.33,-0.86,-1.85,0.58,5.20,6.37,0.21,-2.29,-1.07,0.24,-0.13,0.98,-11.66,-24.17,-13.73,R
27.927,25,4,13,255,0,-0.86,-3.74,9.29,-0.05,-0.09,-0.04,-1.69,1.93,10.60,-0.67,-0.36,0.12,-1.30,2.70,10.65,0.39,-0.54,-1.94,-0.54,1.11,8.23,0.49,-0.38,-1.32,0.08,2.40,7.91,-0.01,-1.11,-1.76,0.25,-0.12,0.99,2.62,-5.37,-5.80,R
27.978,20,3,16,255,0,-1.20,-2.83,9.50,0.09,0.12,0.04,-1.49,3.39,8.29,-0.12,-0.03,-0.36,-0.65,0.22,7.81,-0.23,-0.43,-0.12,-0.46,1.87,7.07,0.08,0.09,-0.72,0.52,7.18,7.05,-0.19,-0.42,-1.78,0.30,-0.14,0.96,0.49,-7.93,-2.32,R
28.029,22,5,16,255,0,-1.18,-3.36,9.42,0.09,0.05,0.01,-1.73,-0.47,10.20,-0.03,0.33,-0.01,-0.88,1.44,10.54,-0.04,0.37,-0.14,-1.14,0.29,11.39,0.18,0.92,-0.57,-0.14,6.82,12.62,-0.04,0.88,-2.48,0.24,-0.14,0.96,9.16,3.54,-4.39,R
28.08,19,2,12,255,0,-1.21,-2.26,9.63,-0.08,0.04,-0.02,-1.91,-0.49,8.89,-0.57,0.05,0.01,-1.25,0.22,11.13,-0.27,0.15,-0.06,-1.11,2.72,8.96,-0.54,0.08,0.02,-0.37,4.37,8.32,-0.12,-0.17,-0.20,0.25,-0.14,0.95,1.16,-13.49,2.14,R
28.132,20,3,12,255,0,-2.98,-3.43,9.35,0.09,-0.02,-0.02,-0.92,-0.48,9.66,-0.08,-0.10,-0.06,-0.52,1.22,9.88,-0.86,-0.01,0.11,-1.02,0.51,9.14,-0.69,0.11,0.04,-0.52,6.03,8.76,-0.19,-0.05,-0.11,0.25,-0.16,0.93,4.15,-2.93,-2.38,R
28.182,20,2,12,255,0,-1.17,-3.30,9.41,0.05,0.04,-0.01,-2.57,-0.32,9.01,-0.15,0.22,-0.06,-1.35,1.05,9.98,-0.24,0.07,0.01,-1.14,0.56,9.81,-0.32,0.08,0.08,-0.25,5.67,8.30,-0.11,0.00,-0.06,0.26,-0.15,0.96,-4.70,3.23,1.59,R
28.234,21,3,10,255,0,-1.11,-3.03,9.48,0.09,-0.05,-0.01,-1.85,-0.17,9.70,-0.09,0.06,-0.04,-1.15,0.11,9.75,-0.31,0.01,0.01,-1.12,-0.23,9.79,-0.13,0.07,0.01,-0.36,5.25,8.59,-0.18,0.07,-0.00,0.25,-0.17,0.95,0.43,-1.10,0.61,R
28.284,20,4,11,255,0,-1.22,-3.18,9.47,0.04,0.03,-0.03,-2.15,-0.25,9.69,0.04,0.09,0.01,-1.26,0.74,9.73,-0.06,-0.01,-0.01,-1.22,0.36,9.77,-0.29,-0.00,0.09,-0.23,5.18,8.55,-0.18,0.10,0.05,0.27,-0.15,0.97,0.85,-0.85,-0.12,R
28.336,19,4,10,255,0,-1.09,-3.18,9.40,0.03,-0.01,-0.02,-2.04,-0.25,9.72,-0.04,0.09,-0.02,-1.23,0.66,9.81,-0.21,0.02,-0.01,-1.21,-0.28,9.73,-0.20,0.03,0.02,-0.67,4.69,8.64,-0.26,0.16,0.05,0.25,-0.16,0.95,-0.73,0.85,1.71,R
28.387,22,4,10,255,0,-1.15,-3.25,9.40,0.06,0.03,-0.04,-2.10,-0.15,9.67,0.07,0.04,0.01,-1.15,0.79,9.68,0.04,-0.02,0.00,-1.16,-0.10,9.67,-0.29,-0.06,0.14,-0.40,4.67,8.78,-0.07,0.06,0.05,0.27,-0.14,0.99,-0.92,1.95,-0.06,R
