Timestamp,Thumb Flex,Pointer Flex,Middle Flex,Ring Flex,Pinky Flex,Thumb Acc. X,Thumb Acc. Y,Thumb Acc. Z,Thumb Gyro X,Thumb Gyro Y,Thumb Gyro Z,Pointer Acc. X,Pointer Acc. Y,Pointer Acc. Z,Pointer Gyro X,Pointer Gyro Y,Pointer Gyro Z,Middle Acc. X,Middle Acc. Y,Middle Acc. Z,Middle Gyro X,Middle Gyro Y,Middle Gyro Z,Ring Acc. X,Ring Acc. Y,Ring Acc. Z,Ring Gyro X,Ring Gyro Y,Ring Gyro Z,Pinky Acc. X,Pinky Acc. Y,Pinky Acc. Z,Pinky Gyro X,Pinky Gyro Y,Pinky Gyro Z,Wrist Gyro X,Wrist Gyro Y,Wrist Gyro Z,Wrist Acc. X,Wrist Acc. Y,Wrist Acc. Z,Hand
0.176,255,255,0,255,255,-5.23,4.25,-7.10,0.01,0.01,0.00,-0.45,3.88,-9.01,-0.01,0.02,0.00,0.13,6.79,-7.09,-0.03,0.01,-0.00,0.87,0.01,-9.83,-0.01,0.02,-0.00,1.20,4.58,-8.35,0.00,0.02,-0.01,0.95,-0.27,0.01,0.79,0.00,0.18,R
0.226,0,255,255,255,255,-5.20,4.24,-7.04,-0.00,0.01,0.00,-0.43,3.92,-9.02,-0.00,0.03,0.00,0.13,6.86,-7.01,-0.03,0.01,0.00,0.88,0.01,-9.78,-0.01,0.02,0.00,1.20,4.60,-8.37,0.01,0.02,-0.01,0.95,-0.27,0.01,0.67,-0.18,0.00,R
0.277,0,255,0,0,255,-5.24,4.16,-7.07,-0.00,0.01,-0.00,-0.41,3.87,-9.04,0.01,0.02,0.01,0.11,6.79,-7.02,-0.04,0.00,0.00,0.85,0.05,-9.78,-0.01,0.02,-0.00,1.19,4.63,-8.37,0.01,0.02,-0.01,0.95,-0.27,0.01,0.67,-0.12,0.00,R
0.328,0,255,0,0,255,-5.23,4.26,-7.08,-0.00,0.01,-0.01,-0.44,3.94,-9.07,0.00,0.02,0.01,0.09,6.82,-7.08,-0.03,0.01,0.00,0.85,0.03,-9.74,-0.01,0.02,0.00,1.15,4.63,-8.34,0.00,0.02,-0.01,0.95,-0.27,0.01,0.67,-0.06,0.06,R
0.379,0,255,0,0,255,-5.21,4.23,-7.09,-0.00,0.00,-0.01,-0.45,3.93,-9.06,0.01,0.03,0.00,0.06,6.76,-7.05,-0.03,0.01,0.01,0.86,0.03,-9.78,-0.00,0.02,0.00,1.20,4.60,-8.34,0.01,0.02,-0.01,0.95,-0.27,0.01,0.79,-0.06,0.12,R
0.431,0,255,255,255,255,-5.20,4.20,-7.09,-0.00,0.01,-0.00,-0.46,3.86,-9.06,0.02,0.02,0.01,0.14,6.84,-7.06,-0.02,0.01,0.00,0.84,0.03,-9.79,-0.01,0.01,0.00,1.20,4.67,-8.37,0.01,0.02,-0.01,0.95,-0.27,0.01,0.73,0.06,0.18,R
0.481,255,255,0,255,255,-5.24,4.21,-7.07,-0.00,0.01,-0.01,-0.45,3.87,-9.04,0.01,0.02,0.00,0.11,6.79,-7.02,-0.02,0.00,0.00,0.86,0.03,-9.86,-0.01,0.01,0.00,1.13,4.63,-8.33,0.00,0.02,-0.01,0.95,-0.27,0.01,0.67,-0.06,0.12,R
0.532,0,255,255,0,255,-5.19,4.19,-7.09,-0.00,0.01,-0.01,-0.45,3.90,-9.05,-0.00,0.02,0.00,0.12,6.78,-7.00,-0.02,0.00,0.00,0.86,0.02,-9.80,-0.00,0.02,0.00,1.18,4.63,-8.33,0.01,0.02,-0.01,0.95,-0.27,0.01,0.67,0.00,0.24,R
0.583,0,255,255,255,255,-5.24,4.19,-7.07,-0.00,0.01,-0.00,-0.40,3.89,-9.05,0.00,0.03,0.00,0.11,6.80,-7.10,-0.02,0.00,-0.00,0.84,0.04,-9.79,-0.01,0.02,0.00,1.20,4.62,-8.39,0.00,0.02,-0.01,0.95,-0.27,0.01,0.67,-0.06,0.12,R
0.634,0,255,255,0,255,-5.19,4.24,-7.07,0.00,0.01,-0.01,-0.41,3.85,-9.02,-0.01,0.02,0.00,0.11,6.78,-7.05,-0.02,0.01,0.01,0.90,0.00,-9.77,-0.01,0.01,-0.00,1.16,4.57,-8.37,0.01,0.02,-0.01,0.95,-0.27,0.01,0.73,-0.12,0.06,R
0.686,0,255,255,0,255,-5.24,4.23,-7.08,0.00,0.01,-0.01,-0.38,3.93,-9.00,-0.01,0.02,0.00,0.12,6.79,-7.03,-0.03,0.01,0.00,0.79,0.01,-9.82,-0.01,0.02,-0.01,1.17,4.63,-8.35,0.00,0.02,-0.01,0.95,-0.27,0.01,0.67,-0.06,0.12,R
0.736,0,255,0,255,255,-5.21,4.21,-7.07,-0.00,0.01,-0.01,-0.38,3.90,-9.04,-0.01,0.02,0.00,0.11,6.74,-7.07,-0.03,0.01,0.00,0.87,0.03,-9.81,-0.01,0.02,0.00,1.20,4.68,-8.39,0.00,0.02,-0.01,0.95,-0.27,0.01,0.67,0.00,0.18,R
0.787,0,255,255,255,255,-5.24,4.27,-7.06,0.00,0.01,-0.00,-0.36,3.89,-9.05,-0.00,0.02,0.00,0.14,6.79,-7.03,-0.02,0.00,0.00,0.86,0.06,-9.79,-0.00,0.02,0.00,1.23,4.64,-8.35,0.01,0.02,-0.01,0.95,-0.27,0.01,0.67,-0.06,0.12,R
0.838,0,255,255,0,255,-5.20,4.25,-7.05,0.01,0.01,-0.01,-0.43,3.88,-9.02,-0.01,0.03,0.00,0.08,6.83,-7.05,-0.03,0.00,0.00,0.81,0.00,-9.77,-0.01,0.02,-0.01,1.16,4.62,-8.35,0.01,0.02,-0.01,0.95,-0.27,0.01,0.73,-0.12,0.06,R
0.889,0,255,255,0,255,-5.24,4.14,-7.13,0.00,0.01,-0.01,-0.45,3.87,-9.01,-0.01,0.02,0.00,0.13,6.80,-7.02,-0.03,0.01,0.00,0.82,-0.01,-9.77,-0.01,0.02,0.00,1.15,4.64,-8.30,0.01,0.02,-0.01,0.95,-0.27,0.01,0.73,-0.06,0.18,R
0.94,0,255,255,0,255,-5.23,4.21,-7.11,0.00,0.01,-0.00,-0.39,3.91,-8.95,0.00,0.03,0.00,0.11,6.78,-7.05,-0.02,0.01,0.00,0.86,0.07,-9.83,-0.01,0.02,-0.00,1.24,4.62,-8.38,0.00,0.02,-0.01,0.95,-0.27,0.01,0.73,-0.18,0.12,R
0.991,255,255,255,255,255,-5.23,4.24,-7.11,0.00,0.01,-0.00,-0.43,3.93,-9.01,-0.01,0.02,0.00,0.09,6.81,-7.03,-0.03,0.01,0.00,0.90,0.05,-9.80,-0.01,0.01,0.00,1.15,4.62,-8.37,0.01,0.02,-0.01,0.95,-0.27,0.01,0.73,-0.06,0.18,R
1.042,0,255,0,0,255,-5.23,4.23,-7.02,0.00,0.01,-0.01,-0.40,3.93,-8.98,-0.01,0.03,0.00,0.11,6.82,-7.06,-0.02,0.01,0.00,0.82,0.00,-9.82,-0.00,0.02,0.01,1.19,4.58,-8.38,0.01,0.02,-0.01,0.95,-0.27,0.01,0.67,-0.12,0.06,R
1.093,0,255,255,0,255,-5.14,4.12,-7.04,0.00,0.01,-0.00,-0.45,3.93,-9.05,-0.02,0.03,0.00,0.11,6.77,-7.06,-0.02,0.01,0.00,0.85,0.03,-9.81,-0.01,0.02,0.00,1.18,4.59,-8.35,0.01,0.02,-0.01,0.95,-0.28,0.01,0.73,-0.06,0.12,R
1.144,0,255,0,0,255,-5.20,4.16,-7.09,0.00,0.01,-0.01,-0.42,3.87,-8.98,-0.01,0.02,-0.00,0.10,6.83,-7.05,-0.02,0.01,0.01,0.85,0.05,-9.79,-0.00,0.02,0.00,1.16,4.62,-8.40,0.00,0.02,-0.01,0.95,-0.27,0.01,0.67,-0.12,0.00,R
1.195,0,255,255,0,255,-5.22,4.19,-7.07,-0.00,0.01,-0.00,-0.38,3.86,-9.05,-0.01,0.02,0.01,0.08,6.74,-7.00,-0.04,0.01,0.00,0.94,0.02,-9.76,-0.01,0.02,-0.00,1.18,4.60,-8.38,0.00,0.02,-0.01,0.95,-0.27,0.01,0.67,-0.06,0.12,R
1.246,0,255,0,255,255,-5.22,4.14,-7.12,0.00,0.01,-0.01,-0.40,3.93,-9.03,-0.01,0.03,0.00,0.10,6.81,-7.02,-0.02,0.01,-0.00,0.83,0.01,-9.75,-0.01,0.02,-0.00,1.16,4.62,-8.36,0.01,0.02,-0.01,0.95,-0.27,0.01,0.73,-0.18,0.06,R
1.297,255,255,255,255,255,-5.19,4.23,-7.10,0.00,0.01,-0.00,-0.38,3.82,-9.04,-0.00,0.02,0.00,0.08,6.82,-7.06,-0.03,0.00,0.00,0.87,0.05,-9.76,-0.01,0.02,0.00,1.17,4.59,-8.37,0.01,0.02,-0.01,0.95,-0.28,0.01,0.73,-0.12,0.06,R
1.348,0,255,255,255,255,-5.23,4.18,-7.09,0.00,0.01,-0.00,-0.40,3.84,-9.02,-0.02,0.03,0.00,0.15,6.87,-7.08,-0.03,0.01,0.00,0.81,-0.01,-9.79,-0.01,0.02,0.00,1.22,4.68,-8.40,0.00,0.02,-0.01,0.95,-0.27,0.01,0.67,-0.12,0.06,R
1.399,0,255,255,0,255,-5.20,4.19,-7.06,0.00,0.01,-0.01,-0.45,3.89,-9.03,-0.01,0.03,0.01,0.16,6.83,-7.05,-0.03,0.00,0.01,0.90,-0.03,-9.78,-0.01,0.01,0.00,1.18,4.64,-8.39,0.00,0.02,-0.01,0.95,-0.27,0.01,0.73,-0.06,0.06,R
1.45,0,255,255,255,255,-5.26,4.20,-7.10,0.00,0.01,-0.01,-0.45,3.88,-8.98,-0.01,0.02,0.00,0.17,6.72,-7.06,-0.03,0.00,0.00,0.87,-0.01,-9.78,-0.01,0.02,-0.00,1.21,4.58,-8.35,0.01,0.02,-0.01,0.95,-0.27,0.01,0.73,0.00,0.06,R
1.501,0,255,255,0,255,-5.19,4.18,-7.08,0.00,0.01,0.00,-0.43,3.91,-9.00,-0.01,0.03,0.00,0.10,6.79,-7.03,-0.03,0.01,0.00,0.87,0.00,-9.76,-0.00,0.01,0.00,1.13,4.62,-8.38,0.01,0.02,-0.01,0.95,-0.27,0.01,0.73,-0.06,0.06,R
1.552,0,255,255,255,255,-5.22,4.19,-7.05,-0.00,0.01,-0.00,-0.44,3.92,-8.97,-0.01,0.03,-0.00,0.11,6.80,-7.05,-0.02,0.00,0.01,0.87,0.03,-9.82,-0.01,0.01,0.01,1.14,4.58,-8.40,0.01,0.02,-0.01,0.95,-0.27,0.01,0.61,-0.06,0.06,R
1.603,0,255,255,0,255,-5.23,4.18,-7.02,0.00,0.01,-0.01,-0.42,3.91,-8.99,-0.02,0.03,0.00,0.11,6.79,-7.05,-0.04,0.01,0.01,0.83,0.06,-9.78,-0.01,0.01,0.00,1.13,4.60,-8.37,0.00,0.03,-0.01,0.95,-0.27,0.01,0.61,-0.06,0.18,R
1.654,0,255,255,0,255,-5.19,4.22,-7.05,0.00,0.02,-0.00,-0.45,3.88,-8.99,0.00,0.02,0.01,0.14,6.78,-7.05,-0.02,0.01,0.01,0.91,0.05,-9.80,-0.01,0.02,-0.00,1.20,4.65,-8.35,0.00,0.02,-0.01,0.95,-0.27,0.01,0.73,-0.18,0.06,R
1.705,0,255,0,255,255,-5.20,4.23,-7.07,0.00,0.01,-0.01,-0.47,3.93,-9.03,-0.01,0.03,0.01,0.17,6.80,-7.01,-0.03,0.01,0.00,0.86,0.01,-9.78,-0.01,0.02,0.00,1.24,4.60,-8.37,0.00,0.02,-0.00,0.95,-0.27,0.01,0.73,-0.12,0.12,R
1.756,255,255,255,0,255,-5.20,4.22,-7.03,0.00,0.01,0.00,-0.42,3.94,-8.96,-0.00,0.03,0.00,0.15,6.80,-6.99,-0.03,0.01,-0.00,0.86,0.01,-9.82,-0.01,0.02,-0.00,1.18,4.59,-8.40,0.01,0.02,-0.01,0.95,-0.27,0.01,0.73,0.00,0.06,R
1.807,255,255,255,255,255,-5.26,4.24,-7.04,0.00,0.01,-0.01,-0.45,3.91,-9.01,-0.01,0.03,0.00,0.12,6.83,-7.02,-0.03,0.00,0.00,0.87,0.00,-9.79,-0.00,0.01,-0.00,1.18,4.63,-8.38,0.00,0.02,-0.01,0.95,-0.27,0.01,0.67,-0.18,0.00,R
1.858,0,255,255,0,255,-5.20,4.25,-7.06,0.00,0.01,-0.00,-0.40,3.89,-9.05,-0.02,0.03,-0.00,0.11,6.78,-7.04,-0.04,0.01,-0.00,0.83,0.02,-9.80,-0.00,0.02,0.01,1.16,4.61,-8.39,0.01,0.02,-0.01,0.95,-0.27,0.01,0.67,-0.06,0.06,R
1.909,0,255,255,0,255,-5.26,4.19,-7.02,0.01,0.01,-0.00,-0.39,3.94,-9.00,-0.00,0.02,-0.00,0.11,6.83,-7.00,-0.02,0.00,0.01,0.86,-0.01,-9.76,-0.00,0.01,0.00,1.14,4.61,-8.34,0.01,0.02,-0.01,0.95,-0.27,0.01,0.67,-0.12,0.00,R
1.96,0,255,255,255,255,-5.17,4.18,-7.07,-0.00,0.01,-0.01,-0.41,3.85,-8.98,-0.01,0.02,0.00,0.14,6.83,-7.03,-0.04,0.00,0.01,0.88,0.04,-9.78,-0.00,0.02,0.00,1.20,4.65,-8.32,0.01,0.02,-0.01,0.95,-0.27,0.01,0.61,-0.06,0.06,R
2.011,0,255,255,0,255,-5.17,4.18,-7.07,0.00,0.01,-0.00,-0.41,3.88,-9.04,-0.01,0.02,-0.00,0.13,6.82,-7.01,-0.03,0.01,0.00,0.85,0.04,-9.73,-0.01,0.02,-0.00,1.19,4.62,-8.37,0.00,0.02,-0.00,0.95,-0.27,0.01,0.73,-0.12,0.06,R
2.062,0,255,255,0,255,-5.25,4.18,-7.04,0.00,0.01,-0.00,-0.46,3.94,-9.02,-0.02,0.02,0.00,0.14,6.80,-7.01,-0.03,0.01,0.00,0.86,-0.03,-9.72,-0.01,0.02,-0.00,1.21,4.64,-8.37,0.01,0.02,-0.01,0.95,-0.27,0.01,0.67,-0.12,0.00,R
2.113,0,255,0,0,255,-5.25,4.22,-7.09,0.00,0.01,-0.01,-0.41,3.90,-9.03,0.00,0.03,0.01,0.11,6.81,-7.07,-0.02,0.00,0.00,0.90,0.03,-9.82,-0.01,0.02,-0.00,1.17,4.64,-8.39,0.00,0.02,-0.01,0.95,-0.27,0.01,0.79,-0.12,0.12,R
2.164,255,255,0,255,255,-5.20,4.18,-7.06,0.00,0.01,-0.01,-0.41,3.87,-8.95,-0.00,0.02,0.00,0.12,6.77,-7.00,-0.02,0.01,0.00,0.88,0.05,-9.79,-0.00,0.01,0.00,1.23,4.63,-8.30,0.00,0.02,-0.01,0.95,-0.27,0.01,0.67,-0.12,-0.06,R
2.215,255,255,0,0,255,-5.24,4.20,-7.06,0.00,0.01,-0.01,-0.45,3.93,-9.06,-0.02,0.03,0.00,0.14,6.77,-7.03,-0.03,0.01,-0.00,0.86,0.01,-9.78,-0.00,0.02,0.00,1.17,4.61,-8.36,0.01,0.01,-0.01,0.95,-0.28,0.01,0.61,-0.18,-0.06,R
2.266,0,255,255,0,255,-5.21,4.16,-7.08,0.00,0.01,-0.00,-0.42,3.89,-9.07,-0.01,0.02,0.00,0.13,6.83,-7.02,-0.04,0.01,0.00,0.90,0.03,-9.76,-0.01,0.02,0.01,1.15,4.64,-8.37,0.01,0.02,-0.01,0.95,-0.27,0.01,0.67,-0.06,0.12,R
2.318,0,255,255,255,255,-5.29,4.20,-7.05,0.00,0.01,-0.01,-0.44,3.91,-9.07,0.01,0.03,0.01,0.12,6.79,-7.02,-0.02,0.01,0.00,0.80,0.04,-9.79,-0.01,0.02,0.00,1.19,4.62,-8.35,0.00,0.02,-0.01,0.95,-0.27,0.01,0.61,-0.12,0.00,R
2.368,0,255,0,0,255,-5.20,4.22,-7.03,-0.00,0.01,-0.00,-0.41,3.89,-9.02,-0.01,0.03,0.00,0.15,6.81,-7.01,-0.02,0.00,0.00,0.85,0.08,-9.76,-0.01,0.02,0.00,1.19,4.58,-8.37,0.01,0.02,-0.01,0.95,-0.27,0.01,0.67,-0.12,0.00,R
2.419,0,255,255,0,255,-5.25,4.24,-7.08,0.01,0.01,-0.00,-0.40,3.84,-9.04,-0.01,0.03,0.00,0.15,6.78,-7.08,-0.03,0.01,0.00,0.83,0.01,-9.77,-0.00,0.02,-0.00,1.20,4.62,-8.35,0.01,0.01,-0.01,0.95,-0.27,0.01,0.73,-0.06,0.12,R
2.47,0,255,0,255,255,-5.18,4.25,-7.10,0.00,0.01,0.00,-0.44,3.96,-8.97,0.01,0.03,0.00,0.12,6.80,-7.02,-0.03,0.00,0.01,0.83,0.04,-9.75,-0.00,0.02,0.00,1.20,4.62,-8.42,0.01,0.02,-0.01,0.95,-0.27,0.01,0.61,-0.12,0.12,R
2.522,255,255,255,0,255,-5.26,4.17,-7.09,0.00,0.01,-0.01,-0.45,3.93,-9.02,-0.00,0.03,0.00,0.14,6.81,-7.05,-0.02,0.00,0.00,0.87,0.03,-9.84,-0.00,0.02,-0.00,1.22,4.60,-8.39,0.00,0.02,-0.01,0.95,-0.27,0.01,0.73,-0.06,0.12,R
2.572,0,255,255,0,255,-5.18,4.18,-7.09,-0.00,0.01,0.00,-0.42,3.85,-9.02,-0.02,0.02,0.00,0.16,6.81,-7.07,-0.03,0.01,0.00,0.82,-0.01,-9.78,-0.01,0.02,-0.00,1.21,4.61,-8.34,0.01,0.01,-0.01,0.95,-0.27,0.01,0.73,0.00,0.12,R
2.623,0,255,255,0,255,-5.29,4.17,-7.09,0.00,0.01,-0.00,-0.45,3.89,-8.97,0.00,0.03,0.00,0.11,6.76,-7.04,-0.02,0.00,0.00,0.79,-0.03,-9.80,-0.01,0.02,-0.00,1.19,4.62,-8.38,0.01,0.02,-0.01,0.95,-0.27,0.01,0.67,-0.06,0.06,R
2.674,0,255,255,255,255,-5.15,4.22,-7.08,0.01,0.01,-0.00,-0.38,3.89,-8.97,-0.00,0.02,0.00,0.11,6.84,-7.01,-0.03,0.01,0.01,0.81,0.07,-9.78,-0.00,0.02,-0.00,1.17,4.61,-8.38,0.00,0.02,-0.01,0.95,-0.28,0.01,0.73,-0.06,0.18,R
2.725,0,255,255,0,255,-5.19,4.17,-7.07,0.00,0.02,-0.01,-0.45,3.86,-9.04,-0.01,0.03,-0.00,0.08,6.81,-7.05,-0.03,0.01,0.00,0.88,0.04,-9.81,-0.01,0.02,-0.00,1.18,4.64,-8.37,0.00,0.01,-0.01,0.95,-0.27,0.01,0.73,-0.06,0.06,R
2.776,0,255,255,0,255,-5.22,4.25,-7.06,0.01,0.01,-0.01,-0.44,3.95,-8.99,-0.01,0.02,0.00,0.08,6.79,-7.08,-0.02,0.01,0.00,0.87,0.02,-9.76,-0.01,0.01,0.00,1.19,4.53,-8.34,0.00,0.02,-0.01,0.95,-0.27,0.01,0.67,-0.12,0.00,R
2.827,0,255,255,255,255,-5.20,4.26,-7.08,0.01,0.01,-0.00,-0.39,3.92,-8.96,-0.01,0.02,0.01,0.12,6.81,-7.01,-0.02,0.00,0.01,0.89,-0.03,-9.77,-0.00,0.02,0.00,1.13,4.59,-8.28,0.00,0.02,-0.01,0.95,-0.27,0.01,0.61,-0.12,0.06,R
2.878,0,255,255,0,255,-5.21,4.15,-7.11,-0.00,0.00,-0.00,-0.43,3.93,-8.98,-0.02,0.03,-0.00,0.10,6.82,-7.02,-0.03,0.01,0.00,0.85,0.02,-9.83,-0.01,0.02,-0.00,1.17,4.63,-8.40,0.01,0.02,-0.01,0.95,-0.27,0.01,0.73,-0.06,0.12,R
2.929,255,255,0,255,255,-5.22,4.23,-7.04,0.00,0.01,-0.00,-0.40,3.90,-9.05,-0.00,0.03,0.00,0.15,6.80,-7.04,-0.03,0.01,0.00,0.80,-0.01,-9.76,-0.01,0.02,-0.00,1.20,4.65,-8.34,0.00,0.02,-0.01,0.95,-0.28,0.01,0.73,-0.18,0.12,R
2.98,0,255,255,0,255,-5.21,4.25,-7.02,0.00,0.01,-0.01,-0.44,3.88,-9.00,-0.00,0.03,0.00,0.11,6.78,-7.02,-0.03,0.01,0.00,0.84,0.04,-9.73,0.00,0.01,0.00,1.20,4.58,-8.36,0.00,0.02,-0.01,0.95,-0.27,0.01,0.61,-0.12,0.00,R
3.031,0,255,0,255,255,-5.15,4.22,-7.04,-0.00,0.01,-0.00,-0.39,3.93,-9.00,-0.01,0.03,-0.00,0.16,6.78,-7.03,-0.04,0.01,-0.00,0.89,-0.01,-9.73,-0.01,0.02,-0.00,1.13,4.57,-8.36,0.00,0.02,-0.01,0.95,-0.27,0.01,0.73,-0.06,0.12,R
3.083,0,255,0,255,255,-5.18,4.16,-7.08,0.00,0.01,-0.00,-0.46,3.91,-9.03,0.01,0.02,0.00,0.08,6.78,-7.01,-0.02,0.01,0.01,0.84,-0.00,-9.77,-0.00,0.02,-0.01,1.20,4.57,-8.33,0.00,0.02,-0.01,0.95,-0.27,0.01,0.67,-0.12,0.00,R
3.134,255,255,255,255,255,-5.16,4.15,-7.05,0.00,0.01,-0.00,-0.42,3.90,-9.03,-0.00,0.02,0.00,0.18,6.80,-7.03,-0.03,0.01,0.00,0.82,0.02,-9.76,-0.00,0.02,0.00,1.20,4.58,-8.37,0.00,0.02,-0.01,0.95,-0.27,0.01,0.67,-0.06,0.06,R
3.184,255,255,0,255,255,-5.22,4.19,-7.08,0.00,0.01,-0.00,-0.45,3.95,-9.04,-0.00,0.02,0.00,0.08,6.78,-7.06,-0.03,0.00,0.00,0.91,0.05,-9.76,-0.00,0.02,0.00,1.20,4.64,-8.35,0.00,0.02,-0.01,0.95,-0.27,0.01,0.73,-0.06,0.12,R
3.235,255,255,255,255,255,-5.19,4.22,-7.08,-0.00,0.01,-0.00,-0.41,3.88,-8.99,0.01,0.02,0.01,0.11,6.78,-7.05,-0.02,0.01,0.00,0.83,-0.03,-9.82,-0.01,0.01,0.01,1.16,4.63,-8.38,0.01,0.02,-0.01,0.95,-0.27,0.01,0.67,-0.12,0.06,R
3.286,0,255,255,255,255,-5.17,4.21,-7.07,-0.01,0.01,-0.00,-0.42,3.85,-9.00,-0.02,0.02,-0.00,0.16,6.80,-7.03,-0.04,0.01,0.00,0.88,0.03,-9.82,-0.01,0.02,-0.00,1.15,4.58,-8.34,0.00,0.02,-0.01,0.95,-0.27,0.01,0.61,0.00,0.06,R
3.337,255,255,0,255,255,-5.19,4.19,-7.06,0.00,0.01,-0.01,-0.39,3.92,-8.98,-0.00,0.03,0.00,0.17,6.81,-7.05,-0.02,0.01,0.00,0.82,0.01,-9.73,-0.00,0.02,-0.00,1.22,4.59,-8.32,0.01,0.02,-0.01,0.95,-0.27,0.01,0.79,-0.12,0.12,R
3.388,0,255,255,255,255,-5.19,4.19,-7.06,0.00,0.01,-0.00,-0.43,3.96,-8.99,-0.01,0.02,0.00,0.15,6.83,-7.02,-0.03,0.00,-0.00,0.86,0.02,-9.81,-0.01,0.02,-0.00,1.15,4.64,-8.35,0.01,0.02,-0.01,0.95,-0.27,0.01,0.73,-0.06,0.06,R
3.439,0,255,255,0,255,-5.19,4.19,-7.07,0.00,0.01,-0.00,-0.38,3.88,-9.06,-0.01,0.03,0.00,0.11,6.83,-7.04,-0.03,0.00,0.00,0.82,-0.03,-9.77,-0.01,0.02,-0.00,1.17,4.62,-8.35,0.00,0.02,-0.01,0.95,-0.27,0.01,0.73,-0.12,0.00,R
3.49,255,255,0,0,255,-5.21,4.19,-6.99,0.01,0.01,-0.00,-0.44,3.87,-9.00,-0.01,0.03,0.00,0.11,6.82,-7.01,-0.03,0.01,0.00,0.88,0.04,-9.82,-0.00,0.02,-0.00,1.13,4.65,-8.36,0.01,0.02,-0.01,0.95,-0.27,0.01,0.73,-0.12,0.12,R
3.541,0,255,0,255,255,-5.26,4.19,-7.02,0.00,0.01,-0.00,-0.40,3.88,-9.00,-0.01,0.03,0.01,0.12,6.76,-6.99,-0.02,0.00,0.00,0.85,0.01,-9.80,-0.01,0.02,0.00,1.18,4.57,-8.38,0.00,0.02,-0.01,0.95,-0.27,0.01,0.73,-0.06,0.00,R
3.592,0,255,255,0,255,-5.19,4.19,-7.07,0.00,0.01,-0.00,-0.42,3.86,-9.02,-0.02,0.02,-0.00,0.11,6.79,-7.03,-0.02,0.01,0.01,0.86,0.03,-9.80,-0.00,0.01,-0.00,1.19,4.62,-8.38,0.00,0.02,-0.01,0.95,-0.27,0.01,0.67,-0.12,0.06,R
3.643,0,255,0,0,255,-5.28,4.26,-7.03,0.00,0.01,-0.00,-0.38,3.86,-9.02,-0.01,0.03,0.00,0.12,6.78,-7.03,-0.03,0.01,0.00,0.85,0.03,-9.80,-0.01,0.02,-0.00,1.18,4.60,-8.35,0.01,0.01,-0.01,0.95,-0.27,0.01,0.67,0.00,0.06,R
3.695,0,255,255,0,255,-5.25,4.20,-7.03,0.00,0.01,0.00,-0.35,3.86,-9.02,-0.00,0.02,0.00,0.12,6.82,-7.04,-0.02,0.01,0.00,0.85,0.01,-9.79,-0.01,0.02,0.00,1.22,4.54,-8.37,0.01,0.01,-0.01,0.95,-0.27,0.01,0.73,-0.18,0.12,R
3.745,255,255,0,255,255,-5.22,4.23,-7.09,0.00,0.01,-0.00,-0.43,3.91,-9.01,-0.02,0.03,0.00,0.14,6.85,-6.98,-0.03,0.00,0.00,0.87,0.01,-9.80,-0.01,0.01,-0.00,1.17,4.57,-8.38,0.01,0.02,-0.01,0.95,-0.27,0.01,0.67,-0.06,0.12,R
3.796,0,255,0,255,255,-5.21,4.24,-7.03,0.00,0.01,-0.01,-0.39,3.82,-9.03,-0.01,0.03,0.00,0.16,6.76,-7.05,-0.02,0.00,0.00,0.83,-0.01,-9.78,-0.01,0.02,0.00,1.16,4.59,-8.39,0.01,0.02,-0.01,0.95,-0.27,0.01,0.67,-0.18,0.12,R
3.847,0,255,255,0,255,-5.22,4.22,-7.08,0.00,0.01,-0.01,-0.39,3.89,-8.99,-0.01,0.03,0.00,0.11,6.79,-7.02,-0.02,0.01,0.00,0.83,0.02,-9.79,-0.01,0.02,-0.00,1.19,4.61,-8.39,0.01,0.02,-0.01,0.95,-0.27,0.01,0.73,-0.06,0.00,R
3.898,0,255,0,0,255,-5.29,4.23,-7.09,0.00,0.01,-0.00,-0.45,3.85,-9.05,-0.01,0.02,0.00,0.17,6.81,-6.97,-0.03,0.00,0.00,0.87,0.03,-9.83,-0.00,0.02,0.00,1.20,4.59,-8.36,0.00,0.02,-0.01,0.95,-0.27,0.01,0.67,0.00,0.00,R
3.949,0,255,255,0,255,-5.22,4.19,-7.09,0.00,0.02,-0.00,-0.43,3.90,-9.00,-0.01,0.02,0.00,0.13,6.81,-7.02,-0.03,0.01,0.00,0.90,0.02,-9.70,-0.01,0.02,0.00,1.20,4.57,-8.34,0.00,0.02,-0.01,0.95,-0.27,0.01,0.67,-0.12,0.06,R
4.001,0,255,255,255,255,-5.28,4.21,-7.05,0.00,0.01,0.00,-0.45,3.90,-9.01,-0.01,0.02,0.00,0.05,6.78,-7.06,-0.03,0.01,0.00,0.88,-0.01,-9.73,-0.01,0.02,-0.00,1.16,4.60,-8.32,0.00,0.02,-0.01,0.95,-0.27,0.01,0.61,-0.12,0.06,R
4.051,0,255,255,255,255,-5.22,4.20,-7.07,0.00,0.01,-0.01,-0.41,3.88,-9.06,-0.01,0.02,0.01,0.14,6.79,-7.07,-0.03,0.01,0.00,0.90,0.03,-9.76,-0.01,0.02,0.00,1.18,4.59,-8.38,0.01,0.02,-0.00,0.95,-0.27,0.01,0.61,0.00,0.00,R
4.102,0,255,255,0,255,-5.18,4.19,-7.12,0.00,0.01,-0.00,-0.40,3.94,-9.04,-0.00,0.03,0.00,0.12,6.75,-7.00,-0.03,0.01,0.00,0.89,0.00,-9.75,-0.01,0.01,0.00,1.18,4.59,-8.34,0.00,0.02,-0.01,0.95,-0.27,0.01,0.67,-0.06,0.18,R
4.154,0,255,255,255,255,-5.20,4.22,-7.02,0.01,0.01,-0.00,-0.46,3.87,-9.02,-0.01,0.02,0.00,0.07,6.81,-7.06,-0.02,-0.00,0.00,0.85,0.06,-9.79,-0.01,0.02,0.00,1.21,4.64,-8.36,0.00,0.02,-0.01,0.95,-0.27,0.01,0.61,-0.12,0.00,R
4.204,0,255,255,0,255,-5.23,4.24,-7.08,-0.00,0.01,-0.01,-0.39,3.85,-9.03,-0.01,0.03,0.00,0.15,6.77,-7.09,-0.04,0.00,0.00,0.81,0.01,-9.79,-0.01,0.01,-0.00,1.18,4.59,-8.35,0.01,0.02,-0.01,0.95,-0.27,0.01,0.67,-0.06,0.12,R
4.255,0,255,0,255,255,-5.21,4.18,-7.07,-0.00,0.01,-0.01,-0.46,3.87,-9.07,-0.00,0.02,0.00,0.11,6.78,-7.01,-0.02,0.01,0.00,0.87,0.08,-9.82,-0.01,0.01,-0.00,1.19,4.62,-8.37,0.00,0.02,-0.01,0.95,-0.27,0.01,0.73,-0.12,0.06,R
4.306,0,255,0,255,255,-5.21,4.26,-7.10,-0.00,0.01,-0.01,-0.45,3.91,-9.01,-0.01,0.03,0.00,0.12,6.79,-7.05,-0.04,0.00,-0.00,0.86,0.01,-9.72,-0.01,0.02,0.00,1.19,4.60,-8.38,0.01,0.02,-0.01,0.95,-0.27,0.01,0.67,-0.06,0.12,R
4.357,0,255,255,0,255,-5.15,4.19,-7.04,0.00,0.01,-0.00,-0.43,3.93,-8.99,0.00,0.03,0.01,0.14,6.76,-7.02,-0.03,0.01,0.00,0.88,0.02,-9.75,-0.01,0.02,0.00,1.15,4.58,-8.37,0.00,0.02,-0.01,0.95,-0.27,0.01,0.67,-0.06,0.00,R
4.409,0,255,255,0,255,-5.22,4.19,-7.07,0.00,0.01,0.00,-0.39,3.90,-9.00,-0.01,0.03,-0.00,0.10,6.79,-7.06,-0.02,0.01,-0.00,0.79,0.00,-9.80,-0.00,0.01,0.00,1.18,4.62,-8.38,0.00,0.02,-0.01,0.95,-0.27,0.01,0.67,-0.06,0.12,R
4.459,0,255,255,0,255,-5.23,4.15,-7.04,0.01,0.01,-0.00,-0.45,3.88,-8.99,-0.01,0.03,0.00,0.11,6.75,-7.05,-0.03,0.01,0.00,0.81,0.05,-9.81,-0.01,0.01,0.00,1.20,4.60,-8.38,0.00,0.01,-0.01,0.95,-0.27,0.01,0.73,0.00,0.18,R
4.51,255,255,0,255,255,-5.26,4.22,-7.01,0.00,0.01,-0.01,-0.44,3.85,-9.03,-0.01,0.03,-0.00,0.17,6.82,-7.00,-0.01,0.01,0.01,0.80,0.02,-9.77,-0.00,0.01,0.00,1.18,4.61,-8.33,0.01,0.02,-0.01,0.95,-0.28,0.01,0.61,-0.24,0.00,R
4.561,0,255,255,0,255,-5.20,4.26,-7.13,-0.01,0.01,-0.00,-0.43,3.89,-9.06,-0.03,0.03,0.00,0.10,6.82,-7.09,-0.05,0.01,0.00,0.87,0.08,-9.75,-0.01,0.02,0.00,1.16,4.62,-8.29,0.00,0.02,-0.01,0.95,-0.27,0.01,0.73,0.06,0.12,R
4.612,0,255,255,0,255,-5.25,4.22,-7.03,0.00,0.02,-0.01,-0.44,3.89,-9.01,-0.00,0.03,0.00,0.09,6.84,-7.04,-0.02,0.00,0.01,0.84,0.05,-9.77,-0.01,0.02,-0.00,1.13,4.63,-8.33,0.00,0.02,-0.01,0.95,-0.27,0.01,0.73,-0.18,0.00,R
4.663,0,255,0,0,255,-5.21,4.19,-7.05,0.00,0.01,-0.01,-0.43,3.90,-8.98,-0.02,0.02,-0.00,0.05,6.79,-7.06,-0.02,0.01,0.00,0.88,0.05,-9.78,-0.00,0.02,-0.00,1.12,4.63,-8.39,0.00,0.02,-0.01,0.95,-0.27,0.01,0.67,-0.12,0.06,R
4.714,0,255,255,255,255,-5.27,4.17,-7.08,-0.00,0.01,-0.01,-0.46,3.95,-9.04,-0.02,0.03,-0.00,0.14,6.77,-7.01,-0.03,0.01,-0.00,0.82,0.04,-9.74,-0.01,0.02,-0.00,1.12,4.58,-8.36,0.01,0.01,-0.01,0.95,-0.27,0.01,0.61,-0.12,0.00,R
4.765,0,255,255,255,255,-5.25,4.18,-7.08,0.00,0.01,-0.00,-0.43,3.86,-9.02,-0.01,0.03,0.00,0.12,6.79,-7.08,-0.03,0.00,-0.00,0.83,0.01,-9.77,-0.01,0.02,-0.01,1.16,4.59,-8.37,0.01,0.02,-0.01,0.95,-0.27,0.01,0.67,-0.06,0.00,R
4.819,0,255,255,0,255,-5.23,4.17,-7.07,0.00,0.01,-0.00,-0.45,3.90,-9.01,-0.01,0.03,0.00,0.10,6.80,-7.04,-0.02,0.01,0.00,0.80,0.03,-9.77,-0.01,0.02,-0.00,1.21,4.65,-8.34,0.00,0.02,-0.01,0.95,-0.27,0.01,0.73,-0.12,0.06,R
4.871,0,255,0,255,255,-5.21,4.16,-7.04,0.01,0.01,-0.01,-0.43,3.86,-8.99,-0.01,0.02,0.01,0.11,6.80,-6.98,-0.02,0.00,0.00,0.85,0.08,-9.75,-0.01,0.01,0.00,1.17,4.60,-8.34,0.01,0.02,-0.01,0.95,-0.27,0.01,0.67,0.00,0.12,R
4.922,0,255,255,255,255,-5.18,4.16,-7.05,0.01,0.01,-0.01,-0.39,3.88,-9.02,-0.01,0.02,0.00,0.13,6.79,-7.07,-0.02,0.00,0.00,0.90,0.06,-9.77,-0.00,0.01,-0.00,1.19,4.62,-8.36,0.01,0.02,-0.01,0.95,-0.27,0.01,0.67,-0.12,0.00,R
4.972,0,255,0,0,255,-5.18,4.20,-7.01,0.00,0.01,-0.00,-0.44,3.83,-9.04,-0.03,0.03,-0.01,0.08,6.78,-6.99,-0.01,0.01,0.01,0.87,0.00,-9.78,-0.00,0.02,-0.00,1.22,4.60,-8.33,0.01,0.02,-0.01,0.95,-0.27,0.01,0.61,-0.31,-0.18,R
5.022,0,255,0,0,255,-5.24,4.23,-7.04,0.00,0.01,-0.00,-0.43,3.93,-9.06,-0.03,0.02,-0.00,0.10,6.78,-7.04,-0.07,0.01,-0.01,0.86,0.01,-9.72,0.00,0.02,0.00,1.20,4.62,-8.32,0.00,0.02,-0.01,0.95,-0.28,0.01,0.73,-0.12,0.06,R
5.074,0,255,255,0,255,-5.24,4.12,-7.10,-0.01,0.01,-0.01,-0.43,3.85,-9.08,0.04,0.02,0.02,0.13,6.74,-7.05,-0.06,0.01,-0.00,0.84,0.04,-9.80,-0.01,0.01,-0.00,1.16,4.60,-8.41,0.01,0.02,-0.01,0.95,-0.27,0.01,0.79,0.18,0.43,R
5.124,0,255,0,0,255,-5.22,4.18,-7.05,-0.01,0.01,-0.00,-0.47,3.88,-8.95,0.04,0.02,0.01,0.12,6.79,-7.03,0.02,0.00,0.01,0.87,-0.02,-9.77,-0.00,0.02,-0.00,1.23,4.59,-8.38,0.01,0.02,-0.01,0.95,-0.28,0.01,0.67,-0.06,0.12,R
5.175,0,255,255,255,255,-5.21,4.21,-7.16,0.01,0.01,0.01,-0.42,3.89,-9.07,0.01,0.02,0.02,0.11,6.74,-7.05,-0.11,0.01,-0.01,0.88,0.01,-9.77,-0.02,0.01,-0.00,1.19,4.60,-8.33,0.00,0.01,-0.01,0.95,-0.27,0.00,0.98,1.04,1.10,R
5.227,0,255,255,255,255,-5.26,4.15,-7.06,0.02,0.03,-0.01,-0.55,3.88,-8.88,0.09,0.03,0.03,0.08,6.78,-7.06,0.09,-0.01,0.03,0.83,0.10,-9.82,-0.01,0.02,-0.00,1.21,4.67,-8.31,0.00,0.02,-0.01,0.95,-0.27,0.02,0.61,-0.37,-0.18,R
5.277,0,255,255,255,255,-5.14,4.21,-7.08,0.00,0.01,0.01,-0.49,3.87,-8.92,-0.13,0.03,-0.03,0.11,6.86,-6.92,-0.02,0.01,0.00,0.86,0.00,-9.74,-0.00,0.02,-0.00,1.15,4.63,-8.34,0.02,0.01,-0.01,0.95,-0.28,0.01,0.73,-0.06,0.31,R
5.329,0,255,0,255,255,-5.21,4.16,-7.05,0.02,0.02,-0.01,-0.42,3.87,-9.04,-0.06,0.02,-0.01,0.11,6.82,-7.07,-0.11,0.01,-0.01,0.87,0.08,-9.73,-0.01,0.02,-0.00,1.23,4.63,-8.33,0.00,0.02,-0.01,0.95,-0.28,0.01,0.92,0.31,0.37,R
5.38,0,255,255,0,255,-5.25,4.19,-7.08,0.02,0.03,-0.01,-0.44,3.86,-9.04,0.02,0.03,0.00,0.15,6.76,-7.06,0.04,0.00,0.02,0.79,0.02,-9.74,-0.00,0.02,-0.00,1.19,4.57,-8.36,0.00,0.02,-0.01,0.95,-0.28,0.01,0.61,-0.61,-0.43,R
5.432,0,255,255,0,255,-5.17,4.20,-7.06,-0.01,-0.00,0.00,-0.42,3.90,-9.01,-0.13,0.02,-0.02,0.05,6.90,-6.97,-0.07,0.01,-0.00,0.87,0.02,-9.76,-0.01,0.02,0.00,1.13,4.63,-8.40,0.00,0.02,-0.01,0.95,-0.27,0.01,0.73,-0.12,0.00,R
5.481,0,255,0,0,255,-5.27,4.19,-7.03,0.01,0.02,-0.01,-0.38,3.88,-9.08,-0.00,0.03,0.00,0.12,6.84,-7.07,-0.03,0.01,-0.00,0.86,0.00,-9.75,-0.01,0.02,0.00,1.23,4.63,-8.36,0.00,0.02,-0.01,0.95,-0.28,0.01,0.67,-0.12,-0.06,R
5.534,0,255,0,255,255,-5.28,4.17,-7.03,0.00,0.01,-0.01,-0.46,3.89,-8.98,0.01,0.03,0.00,0.11,6.80,-7.02,-0.01,0.00,0.00,0.84,0.00,-9.73,-0.00,0.02,-0.00,1.15,4.59,-8.36,0.00,0.02,-0.01,0.95,-0.27,0.01,0.55,-0.49,-0.37,R
5.584,0,255,0,255,255,-5.21,4.17,-7.02,-0.00,0.00,-0.00,-0.44,3.88,-9.03,-0.06,0.02,-0.01,0.15,6.75,-7.02,-0.06,0.01,-0.00,0.84,-0.01,-9.77,-0.01,0.02,-0.00,1.15,4.62,-8.37,0.00,0.02,-0.01,0.95,-0.27,0.01,0.67,-0.06,0.00,R
5.634,0,255,255,0,255,-5.20,4.19,-7.07,0.01,0.01,-0.00,-0.39,3.86,-9.06,0.02,0.02,0.01,0.14,6.80,-7.05,-0.01,0.00,0.01,0.85,-0.04,-9.80,-0.01,0.02,-0.00,1.23,4.64,-8.35,0.00,0.02,-0.01,0.95,-0.27,0.01,0.67,-0.06,0.06,R
5.686,0,255,255,255,255,-5.22,4.20,-7.02,-0.01,0.01,-0.00,-0.45,3.89,-9.02,0.00,0.02,0.01,0.11,6.77,-7.05,-0.01,0.01,0.00,0.72,0.02,-9.75,-0.00,0.01,0.00,1.18,4.64,-8.38,0.00,0.02,-0.01,0.95,-0.27,0.01,0.61,-0.31,-0.12,R
5.736,255,255,0,255,255,-5.23,4.20,-7.07,0.00,0.01,0.00,-0.41,3.87,-9.06,-0.02,0.02,-0.00,0.10,6.84,-7.04,-0.06,0.01,-0.01,0.81,-0.01,-9.79,-0.00,0.02,-0.00,1.22,4.55,-8.41,0.00,0.02,-0.01,0.95,-0.27,0.01,0.79,0.12,0.37,R
5.788,255,255,255,255,255,-5.22,4.22,-7.07,0.01,0.02,-0.01,-0.40,3.90,-9.05,0.04,0.03,0.01,0.17,6.75,-7.04,-0.00,0.00,0.01,0.85,-0.00,-9.81,-0.00,0.02,-0.00,1.21,4.62,-8.36,0.01,0.02,-0.01,0.95,-0.27,0.01,0.73,-0.06,0.06,R
5.839,255,255,0,0,255,-5.20,4.19,-7.02,-0.01,0.00,0.00,-0.49,3.88,-8.96,-0.00,0.02,0.00,0.09,6.78,-7.04,-0.02,0.01,-0.00,0.80,0.04,-9.78,-0.00,0.02,0.00,1.24,4.64,-8.31,0.01,0.02,-0.01,0.95,-0.27,0.01,0.79,-0.12,0.18,R
5.889,0,255,255,255,255,-5.17,4.15,-7.10,0.00,0.01,-0.00,-0.41,3.85,-9.04,-0.01,0.02,0.00,0.12,6.85,-7.05,-0.04,0.00,-0.01,0.83,0.02,-9.82,-0.01,0.02,0.00,1.19,4.63,-8.33,0.01,0.02,-0.01,0.95,-0.27,0.01,0.67,0.06,0.06,R
5.941,0,255,255,255,255,-5.22,4.20,-7.05,0.00,0.01,0.00,-0.45,3.85,-9.02,0.02,0.03,0.01,0.10,6.75,-7.06,-0.02,0.00,0.00,0.87,-0.02,-9.78,-0.00,0.02,-0.00,1.18,4.62,-8.33,0.00,0.02,-0.01,0.95,-0.27,0.01,0.79,-0.06,0.12,R
5.991,0,255,0,255,255,-5.27,4.26,-7.08,-0.00,0.01,0.00,-0.41,3.89,-9.00,-0.00,0.02,0.00,0.13,6.79,-7.00,-0.03,0.01,-0.00,0.82,0.01,-9.82,-0.00,0.02,-0.00,1.17,4.59,-8.35,0.00,0.01,-0.01,0.95,-0.27,0.01,0.67,-0.06,0.18,R
6.043,0,255,255,0,255,-5.23,4.16,-7.13,0.01,0.01,-0.00,-0.41,3.87,-9.01,-0.01,0.02,0.01,0.12,6.77,-7.03,-0.04,0.01,0.00,0.87,0.03,-9.81,-0.00,0.01,-0.00,1.16,4.59,-8.37,0.01,0.01,-0.01,0.95,-0.27,0.01,0.73,-0.06,0.12,R
6.094,0,255,255,0,255,-5.18,4.15,-7.10,0.00,0.01,-0.01,-0.43,3.91,-9.00,0.01,0.02,0.00,0.12,6.79,-7.09,-0.01,0.00,0.01,0.85,0.00,-9.83,0.00,0.02,0.00,1.13,4.56,-8.37,0.00,0.02,-0.01,0.95,-0.27,0.01,0.55,-0.06,-0.06,R
6.146,0,255,255,255,255,-5.17,4.24,-7.10,-0.01,0.01,0.00,-0.40,3.94,-9.01,-0.01,0.02,0.01,0.09,6.76,-6.96,-0.10,0.01,-0.01,0.90,0.11,-9.80,-0.01,0.02,-0.00,1.14,4.64,-8.39,0.00,0.02,-0.01,0.95,-0.27,0.00,0.79,0.18,0.49,R
6.196,0,255,255,255,255,-5.22,4.11,-7.13,0.02,0.04,-0.01,-0.48,3.85,-8.97,0.09,0.04,0.02,0.13,6.81,-7.14,0.03,-0.01,0.01,0.86,0.03,-9.82,-0.01,0.02,-0.00,1.20,4.64,-8.37,0.01,0.02,-0.01,0.95,-0.28,0.01,0.85,0.55,0.49,R
6.247,0,255,0,255,255,-5.21,4.16,-7.02,0.00,0.01,-0.01,-0.54,3.82,-8.84,-0.06,0.04,-0.01,0.09,6.77,-6.98,0.05,-0.01,0.01,0.82,0.02,-9.78,-0.01,0.02,-0.00,1.16,4.65,-8.32,0.01,0.02,-0.01,0.95,-0.28,0.01,0.61,-0.12,0.06,R
6.298,255,255,255,255,255,-5.25,4.13,-7.07,0.01,0.02,-0.00,-0.44,3.88,-9.03,-0.12,0.02,-0.02,0.13,6.77,-7.00,-0.09,0.01,-0.01,0.85,0.09,-9.73,-0.01,0.02,-0.00,1.25,4.64,-8.31,0.00,0.02,-0.01,0.95,-0.28,0.01,0.79,0.37,0.55,R
6.349,0,255,255,255,255,-5.22,4.18,-7.06,0.02,0.03,-0.02,-0.48,3.86,-9.04,0.02,0.04,-0.00,0.08,6.80,-7.05,0.02,0.01,0.01,0.91,0.03,-9.83,-0.01,0.01,0.00,1.12,4.63,-8.34,0.01,0.02,-0.01,0.95,-0.28,0.02,0.49,-0.55,-0.55,R
6.402,0,255,255,255,255,-5.21,4.25,-6.98,-0.01,-0.00,0.00,-0.40,3.91,-8.95,-0.12,0.02,-0.02,0.07,6.85,-6.97,-0.05,0.01,0.00,0.83,0.01,-9.77,-0.00,0.02,0.00,1.19,4.58,-8.37,0.01,0.02,-0.01,0.95,-0.27,0.01,0.55,-0.43,-0.24,R
6.448,0,255,0,255,255,-5.20,4.17,-7.05,0.01,0.01,-0.01,-0.40,3.89,-9.12,-0.05,0.03,-0.01,0.11,6.77,-7.03,-0.06,0.01,-0.01,0.86,0.02,-9.73,-0.00,0.02,-0.00,1.24,4.61,-8.31,0.00,0.02,-0.01,0.95,-0.27,0.01,0.73,0.00,-0.06,R
6.5,0,255,255,0,255,-5.25,4.25,-7.02,0.00,0.01,-0.01,-0.43,3.88,-9.00,0.03,0.03,0.00,0.14,6.78,-7.01,0.02,-0.00,0.01,0.83,0.01,-9.83,-0.00,0.02,0.00,1.12,4.60,-8.34,0.01,0.02,-0.01,0.95,-0.28,0.01,0.43,-0.61,-0.43,R
6.552,0,255,255,0,255,-5.23,4.16,-7.06,-0.01,-0.00,-0.00,-0.38,3.88,-9.00,-0.06,0.02,-0.01,0.13,6.79,-7.00,-0.07,0.01,-0.01,0.80,0.03,-9.79,-0.00,0.01,-0.00,1.18,4.55,-8.38,0.00,0.02,-0.01,0.95,-0.27,0.01,0.73,0.00,0.12,R
6.604,0,255,0,0,255,-5.20,4.18,-7.07,0.00,0.01,-0.01,-0.38,3.88,-9.04,0.01,0.03,0.01,0.11,6.79,-7.03,-0.04,0.00,-0.00,0.84,0.02,-9.79,-0.01,0.01,0.00,1.14,4.61,-8.35,0.00,0.02,-0.01,0.95,-0.27,0.01,0.67,0.00,0.06,R
6.656,0,255,0,0,255,-5.26,4.19,-7.08,0.01,0.01,-0.00,-0.42,3.88,-9.00,0.03,0.03,0.00,0.09,6.74,-7.04,0.02,0.00,0.01,0.86,0.01,-9.80,0.00,0.01,0.00,1.22,4.60,-8.32,0.01,0.02,-0.01,0.95,-0.28,0.01,0.61,-0.18,-0.06,R
6.704,0,255,255,0,255,-5.17,4.20,-7.07,-0.01,0.00,0.00,-0.44,3.90,-9.00,-0.03,0.02,0.00,0.11,6.80,-7.01,-0.06,0.01,-0.00,0.91,0.03,-9.78,-0.01,0.02,0.00,1.20,4.69,-8.38,0.01,0.02,-0.01,0.95,-0.27,0.01,0.73,0.12,0.31,R
6.757,255,255,0,255,255,-5.16,4.23,-7.08,0.00,0.02,-0.01,-0.43,3.85,-9.01,0.02,0.03,0.01,0.09,6.77,-7.00,-0.01,0.01,0.01,0.84,-0.02,-9.78,-0.01,0.02,-0.00,1.13,4.59,-8.41,0.00,0.02,-0.01,0.95,-0.28,0.01,0.67,-0.06,0.06,R
6.81,0,255,255,255,255,-5.20,4.24,-7.06,0.00,0.02,-0.00,-0.46,3.89,-8.98,-0.00,0.02,0.01,0.09,6.77,-7.05,-0.03,0.00,0.00,0.81,0.01,-9.77,-0.01,0.02,-0.00,1.18,4.51,-8.35,0.01,0.02,-0.01,0.95,-0.27,0.01,0.67,-0.12,0.06,R
6.863,0,255,0,0,255,-5.22,4.21,-7.07,0.01,0.01,-0.01,-0.45,3.90,-9.07,-0.01,0.02,0.00,0.10,6.77,-7.05,-0.04,0.01,0.00,0.91,-0.01,-9.82,-0.01,0.02,0.00,1.15,4.61,-8.37,0.00,0.02,-0.01,0.95,-0.27,0.01,0.67,0.00,0.18,R
6.907,255,255,0,255,255,-5.29,4.25,-7.09,0.01,0.01,-0.01,-0.44,3.86,-9.05,0.01,0.03,0.01,0.04,6.82,-7.04,-0.01,0.00,0.00,0.87,0.02,-9.76,-0.00,0.02,-0.00,1.14,4.66,-8.34,0.00,0.02,-0.01,0.95,-0.27,0.01,0.79,-0.06,0.12,R
6.961,0,255,255,0,255,-5.23,4.18,-7.06,-0.01,0.00,-0.01,-0.44,3.95,-9.02,0.00,0.02,0.00,0.11,6.80,-7.00,-0.02,0.01,0.00,0.87,-0.00,-9.79,-0.01,0.01,0.00,1.19,4.62,-8.31,0.01,0.02,-0.01,0.95,-0.27,0.01,0.67,-0.06,0.00,R
7.012,0,255,255,255,255,-5.22,4.13,-7.02,-0.01,0.01,-0.01,-0.45,3.86,-9.00,-0.03,0.03,0.00,0.14,6.77,-7.05,-0.03,0.00,-0.00,0.85,0.01,-9.77,-0.00,0.02,-0.00,1.22,4.63,-8.37,0.00,0.02,-0.01,0.95,-0.27,0.01,0.67,-0.06,0.12,R
7.065,0,255,255,0,255,-5.26,4.15,-7.05,0.01,0.01,-0.01,-0.48,3.89,-9.00,-0.04,0.03,0.00,0.11,6.77,-7.10,-0.02,0.01,0.00,0.85,0.03,-9.83,-0.01,0.02,-0.00,1.16,4.62,-8.39,0.00,0.02,-0.01,0.95,-0.27,0.01,0.67,-0.18,0.00,R
7.113,0,255,255,0,255,-5.16,4.15,-7.06,0.00,0.02,-0.01,-0.42,3.90,-8.97,-0.02,0.03,0.00,0.20,6.79,-7.07,-0.02,0.01,0.01,0.85,-0.01,-9.73,-0.01,0.02,0.00,1.16,4.64,-8.36,0.00,0.02,-0.01,0.95,-0.28,0.01,0.61,-0.06,-0.06,R
7.164,0,255,255,0,255,-5.21,4.24,-7.11,0.00,0.01,0.00,-0.42,3.85,-9.00,-0.02,0.03,-0.01,0.12,6.82,-7.02,-0.03,0.01,0.00,0.82,0.04,-9.78,-0.01,0.02,0.00,1.17,4.58,-8.36,0.00,0.01,-0.01,0.95,-0.27,0.01,0.67,-0.12,-0.06,R
7.215,0,255,0,0,255,-5.20,4.21,-7.09,0.01,0.01,-0.00,-0.41,3.88,-9.02,-0.02,0.02,-0.00,0.12,6.79,-7.05,-0.03,0.01,0.00,0.86,0.02,-9.80,-0.01,0.02,-0.00,1.13,4.57,-8.34,0.00,0.02,-0.01,0.95,-0.27,0.01,0.67,-0.06,0.00,R
7.264,0,255,255,255,255,-5.25,4.24,-7.05,0.00,0.01,-0.00,-0.42,3.89,-9.02,-0.00,0.02,0.00,0.17,6.74,-7.08,-0.02,0.01,0.00,0.87,0.00,-9.84,-0.01,0.02,0.00,1.17,4.62,-8.41,0.01,0.02,-0.01,0.95,-0.27,0.01,0.67,-0.12,0.06,R
7.318,0,255,0,0,255,-5.23,4.22,-7.09,0.00,0.01,-0.00,-0.46,3.91,-8.98,-0.01,0.02,0.00,0.11,6.78,-7.02,-0.04,0.01,-0.00,0.83,-0.01,-9.84,-0.01,0.01,-0.00,1.17,4.60,-8.37,0.01,0.02,-0.01,0.95,-0.27,0.01,0.73,-0.12,0.00,R
7.369,255,255,255,0,255,-5.24,4.16,-7.08,0.00,0.01,-0.00,-0.43,3.86,-9.04,-0.00,0.02,0.00,0.09,6.76,-7.05,-0.04,0.01,0.00,0.88,0.08,-9.81,-0.01,0.02,0.00,1.21,4.57,-8.35,0.01,0.02,-0.01,0.95,-0.27,0.01,0.61,-0.06,0.06,R
7.417,0,255,255,255,255,-5.19,4.18,-7.04,0.00,0.01,-0.01,-0.44,3.91,-9.00,0.00,0.03,0.01,0.10,6.82,-7.01,-0.02,0.00,0.01,0.84,0.01,-9.85,-0.00,0.02,0.00,1.21,4.61,-8.37,0.00,0.02,-0.01,0.95,-0.27,0.01,0.73,-0.12,0.12,R
7.468,0,255,0,255,255,-5.24,4.16,-7.08,0.01,0.01,-0.00,-0.44,3.88,-9.00,0.00,0.02,0.00,0.10,6.76,-7.05,-0.02,-0.00,0.00,0.77,-0.01,-9.75,-0.01,0.02,0.00,1.21,4.65,-8.32,0.01,0.02,-0.01,0.95,-0.27,0.01,0.73,0.00,0.12,R
7.52,0,255,255,0,255,-5.18,4.22,-7.13,0.01,0.00,-0.01,-0.41,3.91,-9.01,0.00,0.02,0.00,0.11,6.78,-7.05,-0.04,0.01,0.00,0.85,0.05,-9.73,-0.01,0.02,0.00,1.17,4.63,-8.38,0.01,0.02,-0.01,0.95,-0.27,0.01,0.73,-0.06,0.12,R
7.572,0,255,255,255,255,-5.21,4.21,-7.06,-0.00,0.01,-0.01,-0.45,3.88,-9.03,-0.00,0.03,0.00,0.12,6.84,-7.02,-0.03,0.01,0.00,0.82,0.05,-9.77,-0.00,0.02,-0.00,1.23,4.58,-8.37,0.00,0.02,-0.01,0.95,-0.27,0.01,0.67,0.00,0.12,R
7.623,255,255,0,255,255,-5.20,4.20,-7.04,0.00,0.01,-0.01,-0.47,3.90,-8.94,-0.00,0.02,0.00,0.09,6.80,-7.04,-0.02,0.00,0.00,0.86,0.02,-9.77,-0.00,0.02,0.00,1.15,4.58,-8.36,0.01,0.02,-0.01,0.95,-0.27,0.01,0.67,-0.06,0.18,R
7.674,0,255,255,0,255,-5.21,4.18,-7.07,0.00,0.02,-0.01,-0.40,3.89,-8.95,-0.00,0.03,0.00,0.15,6.80,-7.05,-0.02,0.00,0.01,0.82,0.00,-9.76,-0.01,0.02,-0.00,1.15,4.55,-8.35,0.01,0.02,-0.01,0.95,-0.28,0.01,0.61,0.06,0.06,R
7.726,0,255,255,0,255,-5.27,4.14,-7.10,0.01,0.02,-0.00,-0.40,3.87,-9.03,-0.01,0.03,0.00,0.12,6.79,-7.02,-0.02,0.00,0.01,0.87,0.00,-9.81,-0.01,0.02,0.00,1.21,4.55,-8.35,0.01,0.02,-0.01,0.95,-0.27,0.01,0.73,0.00,0.06,R
7.776,0,255,0,0,255,-5.25,4.19,-7.03,0.01,0.01,-0.01,-0.45,3.87,-8.99,-0.00,0.02,0.00,0.10,6.80,-7.05,-0.01,0.00,0.00,0.88,-0.03,-9.84,-0.01,0.02,-0.00,1.22,4.64,-8.39,0.00,0.02,-0.01,0.95,-0.27,0.01,0.67,-0.18,0.00,R
7.827,0,255,255,0,255,-5.24,4.17,-7.06,0.00,0.01,-0.01,-0.36,3.92,-9.00,-0.03,0.02,-0.00,0.14,6.80,-7.02,-0.04,0.00,0.00,0.88,0.00,-9.79,-0.00,0.02,0.00,1.19,4.64,-8.37,0.01,0.02,-0.01,0.95,-0.27,0.01,0.73,-0.12,0.00,R
7.878,0,255,255,0,255,-5.26,4.20,-7.02,0.01,0.01,-0.00,-0.40,3.89,-9.04,-0.01,0.02,0.00,0.17,6.83,-7.02,-0.03,0.01,0.00,0.80,0.00,-9.77,-0.01,0.02,0.00,1.12,4.61,-8.33,0.00,0.02,-0.01,0.95,-0.27,0.01,0.61,-0.12,0.00,R
7.929,0,255,0,0,255,-5.20,4.24,-7.06,0.00,0.01,-0.01,-0.42,3.86,-9.05,0.00,0.03,0.00,0.11,6.80,-7.04,-0.02,0.01,0.00,0.89,0.00,-9.75,-0.01,0.01,0.00,1.16,4.63,-8.37,0.01,0.02,-0.01,0.95,-0.27,0.01,0.61,-0.18,-0.06,R
7.979,0,255,255,0,255,-5.24,4.19,-7.05,-0.00,0.01,-0.01,-0.38,3.89,-9.03,-0.03,0.02,0.00,0.10,6.82,-7.05,-0.02,0.01,-0.00,0.87,0.07,-9.79,-0.01,0.01,0.00,1.18,4.61,-8.35,0.00,0.02,-0.00,0.95,-0.27,0.01,0.73,-0.12,0.12,R
8.03,0,255,255,0,255,-5.16,4.20,-7.06,0.00,0.01,-0.00,-0.41,3.94,-9.08,-0.01,0.03,0.00,0.12,6.77,-7.02,-0.02,0.01,-0.00,0.84,0.02,-9.75,-0.01,0.02,0.00,1.17,4.58,-8.35,0.01,0.02,-0.01,0.95,-0.27,0.01,0.67,-0.12,0.00,R
8.081,0,255,255,0,255,-5.25,4.13,-7.04,-0.00,0.00,-0.01,-0.39,3.86,-8.98,-0.01,0.02,-0.00,0.08,6.81,-7.05,-0.01,0.00,0.00,0.87,0.02,-9.76,-0.00,0.01,0.00,1.19,4.66,-8.32,0.00,0.02,-0.01,0.95,-0.27,0.01,0.61,-0.24,-0.12,R
8.134,0,255,0,255,255,-5.18,4.17,-7.04,0.00,0.01,-0.01,-0.45,3.87,-9.00,-0.03,0.03,-0.00,0.15,6.78,-7.01,-0.03,0.00,0.00,0.84,0.02,-9.80,-0.01,0.01,0.00,1.16,4.58,-8.39,0.01,0.02,-0.01,0.95,-0.28,0.01,0.61,-0.18,-0.06,R
8.185,0,255,255,0,255,-5.23,4.20,-7.01,-0.01,0.01,-0.00,-0.47,3.88,-8.97,-0.03,0.03,-0.01,0.15,6.83,-7.03,-0.03,0.01,0.00,0.81,0.00,-9.76,-0.00,0.02,0.00,1.20,4.62,-8.32,0.00,0.02,-0.01,0.95,-0.27,0.01,0.61,-0.18,-0.06,R
8.236,0,255,255,255,255,-5.23,4.20,-7.01,0.01,0.01,-0.01,-0.41,3.84,-9.03,-0.02,0.03,-0.00,0.17,6.82,-7.01,-0.02,0.01,0.00,0.83,-0.01,-9.82,-0.01,0.02,-0.01,1.15,4.64,-8.37,0.00,0.02,-0.01,0.95,-0.28,0.01,0.61,-0.31,-0.18,R
8.286,0,255,0,255,255,-5.22,4.15,-7.06,0.00,0.00,-0.00,-0.45,3.84,-9.02,-0.03,0.03,-0.01,0.12,6.87,-7.03,-0.03,0.01,0.00,0.83,0.04,-9.77,-0.01,0.02,-0.00,1.15,4.60,-8.28,0.01,0.02,-0.01,0.95,-0.27,0.01,0.67,-0.24,-0.37,R
8.337,255,255,255,255,255,-5.21,4.16,-7.09,-0.00,0.01,-0.01,-0.41,3.89,-9.05,-0.01,0.03,0.00,0.13,6.76,-7.02,-0.05,0.01,-0.00,0.81,0.05,-9.76,-0.00,0.02,0.00,1.18,4.60,-8.35,0.00,0.02,-0.01,0.95,-0.27,0.01,0.61,-0.31,-0.18,R
8.389,0,255,255,0,255,-5.19,4.22,-7.03,-0.01,0.00,-0.00,-0.39,3.94,-9.01,0.01,0.02,0.01,0.12,6.76,-7.09,-0.04,0.01,0.00,0.81,0.02,-9.80,-0.01,0.02,-0.00,1.16,4.55,-8.37,0.01,0.02,-0.01,0.95,-0.27,0.01,0.61,-0.18,-0.06,R
8.439,0,255,255,0,255,-5.22,4.20,-7.09,0.00,0.01,-0.00,-0.35,3.87,-9.02,0.03,0.03,0.01,0.15,6.77,-7.07,-0.03,0.01,0.00,0.87,0.05,-9.82,-0.01,0.01,0.00,1.21,4.61,-8.41,0.00,0.02,-0.01,0.95,-0.27,0.01,0.73,0.00,0.00,R
8.491,0,255,0,255,255,-5.18,4.14,-7.08,-0.00,0.01,-0.00,-0.44,3.90,-9.04,0.02,0.03,0.01,0.14,6.82,-7.06,-0.01,0.00,0.01,0.82,0.04,-9.80,-0.01,0.02,-0.00,1.14,4.69,-8.30,0.01,0.02,-0.01,0.95,-0.27,0.01,0.73,0.18,0.31,R
8.542,0,255,255,0,255,-5.24,4.20,-7.04,-0.00,0.01,-0.01,-0.49,3.86,-8.96,-0.01,0.03,-0.00,0.11,6.76,-6.98,0.02,-0.00,0.01,0.91,0.04,-9.81,-0.01,0.02,0.00,1.20,4.60,-8.39,0.00,0.02,-0.01,0.95,-0.28,0.01,0.67,-0.06,0.06,R
8.593,0,255,255,0,255,-5.19,4.15,-7.08,0.00,0.00,-0.00,-0.39,3.93,-8.99,-0.05,0.03,-0.00,0.13,6.81,-6.99,-0.06,0.01,-0.00,0.84,0.01,-9.81,-0.01,0.02,0.00,1.15,4.63,-8.39,0.00,0.02,-0.01,0.95,-0.27,0.01,0.79,0.00,0.18,R
8.643,0,255,0,255,255,-5.21,4.19,-7.09,0.01,0.02,-0.00,-0.39,3.87,-9.00,-0.00,0.03,0.00,0.11,6.78,-7.03,-0.02,0.01,0.00,0.83,0.04,-9.78,-0.01,0.02,-0.00,1.19,4.60,-8.36,0.00,0.02,-0.01,0.95,-0.28,0.01,0.67,-0.24,-0.18,R
8.694,0,255,255,0,255,-5.22,4.17,-7.03,0.01,0.01,-0.00,-0.46,3.90,-8.98,-0.03,0.03,-0.00,0.11,6.76,-7.02,-0.02,0.01,0.00,0.82,0.03,-9.81,-0.01,0.02,0.00,1.13,4.60,-8.39,0.01,0.02,-0.01,0.95,-0.27,0.01,0.67,-0.18,-0.12,R
8.744,0,255,255,0,255,-5.19,4.17,-7.02,-0.00,0.01,-0.01,-0.42,3.94,-9.03,-0.04,0.02,-0.00,0.13,6.79,-7.06,-0.04,0.01,-0.00,0.82,0.05,-9.82,-0.01,0.01,0.00,1.23,4.58,-8.35,0.01,0.02,-0.01,0.95,-0.27,0.01,0.67,-0.06,0.00,R
8.795,255,255,255,255,255,-5.23,4.24,-7.09,0.00,0.01,-0.00,-0.45,3.95,-9.00,-0.01,0.03,0.00,0.13,6.81,-7.03,-0.02,0.00,0.00,0.89,-0.01,-9.76,-0.00,0.02,0.00,1.15,4.64,-8.32,0.01,0.02,-0.01,0.95,-0.27,0.01,0.67,-0.18,-0.06,R
8.847,0,255,255,255,255,-5.19,4.16,-7.04,-0.00,0.00,0.00,-0.42,3.87,-8.97,-0.01,0.02,0.00,0.10,6.77,-7.05,-0.04,0.01,0.00,0.85,0.06,-9.80,-0.00,0.02,-0.01,1.20,4.59,-8.33,0.00,0.02,-0.01,0.95,-0.27,0.01,0.73,-0.18,0.06,R
8.898,0,255,0,255,255,-5.24,4.18,-7.08,0.00,0.01,-0.00,-0.40,3.88,-9.00,-0.00,0.03,0.00,0.11,6.78,-7.09,-0.03,0.01,0.01,0.83,0.01,-9.77,-0.01,0.02,-0.00,1.15,4.60,-8.44,0.01,0.02,-0.01,0.95,-0.27,0.01,0.67,0.00,0.06,R
8.949,0,255,0,0,255,-5.13,4.19,-7.07,0.00,0.01,-0.00,-0.41,3.85,-8.99,0.01,0.02,0.01,0.12,6.85,-7.03,-0.02,0.00,0.01,0.92,0.03,-9.84,-0.01,0.02,-0.00,1.18,4.61,-8.34,0.00,0.02,-0.01,0.95,-0.27,0.01,0.67,-0.06,0.12,R
9.0,0,255,255,255,255,-5.26,4.19,-7.07,-0.00,0.01,-0.01,-0.41,3.92,-9.01,-0.01,0.03,0.01,0.14,6.83,-7.05,-0.03,0.01,0.00,0.85,-0.01,-9.76,-0.00,0.02,0.00,1.23,4.61,-8.33,0.01,0.02,-0.01,0.95,-0.27,0.01,0.79,-0.06,0.06,R
9.052,0,255,0,0,255,-5.23,4.19,-7.11,0.01,0.01,-0.00,-0.38,3.91,-9.05,-0.00,0.02,-0.00,0.07,6.78,-7.05,-0.04,0.01,0.00,0.86,0.01,-9.78,-0.00,0.01,0.00,1.15,4.62,-8.35,0.01,0.02,-0.01,0.95,-0.27,0.01,0.67,-0.06,0.18,R
9.103,255,255,255,0,255,-5.17,4.19,-7.09,0.01,0.01,-0.01,-0.39,3.90,-9.01,0.00,0.02,0.00,0.14,6.77,-7.02,-0.01,0.00,0.00,0.80,0.02,-9.75,-0.01,0.02,-0.00,1.21,4.63,-8.35,0.00,0.02,-0.01,0.95,-0.27,0.01,0.73,-0.12,0.06,R
9.152,0,255,255,0,255,-5.20,4.19,-7.07,0.00,0.01,-0.00,-0.38,3.88,-8.97,-0.01,0.03,0.00,0.09,6.78,-7.02,-0.03,0.01,0.00,0.86,0.06,-9.78,-0.01,0.02,-0.00,1.15,4.63,-8.41,0.01,0.02,-0.01,0.95,-0.27,0.01,0.73,-0.18,0.06,R
9.204,0,255,255,255,255,-5.24,4.18,-7.02,0.00,0.01,-0.01,-0.39,3.90,-8.98,-0.01,0.03,0.00,0.11,6.81,-7.04,-0.03,0.01,0.00,0.86,0.01,-9.75,-0.01,0.02,0.00,1.16,4.60,-8.41,0.01,0.02,-0.01,0.95,-0.27,0.01,0.73,-0.06,0.12,R
9.255,255,255,0,255,255,-5.25,4.21,-7.07,0.01,0.01,-0.00,-0.45,3.92,-9.03,0.00,0.03,0.01,0.12,6.80,-7.07,-0.02,0.00,0.00,0.80,0.02,-9.79,-0.01,0.02,-0.00,1.18,4.58,-8.32,0.01,0.02,-0.01,0.95,-0.27,0.01,0.67,-0.06,0.06,R
9.306,0,255,255,255,255,-5.21,4.21,-7.02,0.00,0.01,-0.00,-0.43,3.84,-9.01,-0.01,0.02,0.00,0.11,6.82,-7.00,-0.03,0.01,0.01,0.83,0.07,-9.81,-0.01,0.02,-0.00,1.19,4.64,-8.37,0.00,0.02,-0.01,0.95,-0.27,0.01,0.73,-0.06,0.06,R
9.358,0,255,255,255,255,-5.23,4.26,-7.08,-0.00,0.01,-0.01,-0.46,3.95,-9.01,-0.01,0.03,0.00,0.13,6.81,-7.01,-0.04,0.01,0.00,0.89,0.04,-9.79,-0.01,0.02,0.00,1.18,4.62,-8.39,-0.00,0.02,-0.01,0.95,-0.27,0.01,0.67,-0.06,0.12,R
9.408,0,255,255,0,255,-5.20,4.19,-7.04,-0.00,0.02,-0.01,-0.44,3.89,-9.03,-0.00,0.03,0.01,0.11,6.83,-7.01,-0.02,0.00,0.00,0.85,0.01,-9.79,-0.01,0.02,0.00,1.21,4.58,-8.37,0.01,0.02,-0.01,0.95,-0.27,0.01,0.61,-0.12,0.06,R
9.458,0,255,0,0,255,-5.19,4.16,-7.06,0.00,0.01,-0.00,-0.40,3.87,-8.99,-0.02,0.02,0.00,0.11,6.80,-7.06,-0.03,0.01,0.00,0.84,0.02,-9.79,0.00,0.01,0.00,1.17,4.60,-8.32,0.01,0.02,-0.01,0.95,-0.27,0.01,0.73,-0.12,0.06,R
9.51,0,255,255,0,255,-5.27,4.17,-7.10,0.00,0.01,-0.01,-0.39,3.85,-9.01,-0.01,0.02,0.00,0.10,6.81,-7.06,-0.03,0.01,0.00,0.86,0.04,-9.75,-0.00,0.02,0.00,1.15,4.61,-8.40,0.01,0.02,-0.00,0.95,-0.27,0.01,0.67,-0.06,0.12,R
9.561,0,255,255,0,255,-5.17,4.19,-7.05,0.00,0.01,-0.00,-0.42,3.85,-8.99,-0.01,0.03,0.00,0.10,6.83,-7.02,-0.03,0.01,-0.00,0.81,0.03,-9.81,-0.01,0.02,0.01,1.17,4.59,-8.37,0.01,0.02,-0.01,0.95,-0.27,0.01,0.67,-0.06,0.06,R
9.611,0,255,255,0,255,-5.19,4.21,-7.04,0.00,0.02,-0.00,-0.42,3.90,-9.03,-0.01,0.03,0.00,0.12,6.79,-7.08,-0.02,0.01,0.01,0.89,0.00,-9.76,-0.01,0.02,-0.00,1.21,4.63,-8.36,0.00,0.02,-0.01,0.95,-0.27,0.01,0.67,-0.12,0.06,R
9.663,0,255,255,0,255,-5.23,4.22,-7.09,0.00,0.01,0.00,-0.43,3.84,-9.02,-0.01,0.02,0.00,0.05,6.76,-7.02,-0.02,0.00,0.00,0.89,0.01,-9.79,-0.00,0.01,-0.00,1.15,4.56,-8.36,0.00,0.02,-0.01,0.95,-0.27,0.01,0.73,-0.12,0.12,R
9.712,0,255,0,0,255,-5.22,4.21,-7.07,0.00,0.01,-0.00,-0.42,3.90,-9.04,-0.01,0.03,0.00,0.11,6.81,-7.07,-0.03,0.01,0.00,0.85,0.02,-9.75,-0.01,0.02,0.00,1.18,4.66,-8.34,0.01,0.02,-0.01,0.95,-0.27,0.01,0.73,-0.12,0.06,R
9.765,0,255,255,255,255,-5.18,4.18,-7.06,0.01,0.02,-0.00,-0.42,3.85,-9.02,-0.01,0.03,0.00,0.09,6.80,-7.04,-0.02,0.00,0.00,0.85,0.01,-9.74,-0.00,0.02,0.00,1.14,4.59,-8.35,0.01,0.02,-0.01,0.95,-0.27,0.01,0.73,-0.18,0.12,R
9.815,0,255,255,0,255,-5.21,4.24,-7.08,0.00,0.01,-0.01,-0.42,3.90,-8.98,-0.02,0.03,-0.00,0.11,6.75,-7.03,-0.02,0.01,0.00,0.83,0.00,-9.84,-0.01,0.02,0.00,1.19,4.59,-8.39,0.00,0.02,-0.01,0.95,-0.27,0.01,0.67,-0.06,0.06,R
9.865,0,255,255,255,255,-5.21,4.22,-7.05,0.01,0.01,-0.01,-0.43,3.87,-9.02,-0.01,0.03,-0.00,0.08,6.79,-7.02,-0.03,0.01,0.00,0.85,0.06,-9.82,0.00,0.02,-0.00,1.19,4.58,-8.33,0.00,0.02,-0.01,0.95,-0.27,0.01,0.67,-0.12,0.00,R
9.919,0,255,255,255,255,-5.22,4.15,-7.07,0.00,0.01,-0.01,-0.42,3.85,-9.00,-0.01,0.03,0.00,0.11,6.80,-6.99,-0.02,0.01,0.00,0.81,0.01,-9.78,-0.00,0.02,-0.00,1.16,4.58,-8.36,0.01,0.02,-0.01,0.95,-0.27,0.01,0.67,-0.18,0.12,R
9.97,0,255,255,255,255,-5.22,4.21,-7.06,0.00,0.01,-0.00,-0.45,3.85,-9.01,-0.01,0.03,0.00,0.13,6.76,-7.05,-0.02,0.01,0.00,0.88,0.00,-9.80,-0.00,0.01,0.00,1.18,4.58,-8.35,0.01,0.01,-0.01,0.95,-0.28,0.01,0.67,-0.06,0.06,R
10.022,0,255,255,0,255,-5.20,4.14,-7.04,0.00,0.01,-0.00,-0.45,3.86,-9.02,-0.01,0.02,0.00,0.14,6.76,-7.03,-0.03,0.01,0.00,0.86,0.04,-9.74,-0.01,0.02,0.00,1.18,4.60,-8.37,0.00,0.02,-0.01,0.95,-0.27,0.01,0.67,-0.06,0.06,R
10.072,0,255,255,255,255,-5.20,4.19,-7.07,0.00,0.01,-0.01,-0.42,3.85,-8.99,-0.01,0.02,-0.00,0.13,6.78,-7.02,-0.03,0.01,0.01,0.88,0.03,-9.82,-0.01,0.02,0.00,1.16,4.66,-8.31,0.00,0.02,-0.01,0.95,-0.27,0.01,0.67,-0.12,0.12,R
10.121,0,255,255,255,255,-5.22,4.20,-7.00,0.00,0.01,-0.01,-0.42,3.86,-9.03,-0.00,0.03,0.00,0.15,6.80,-7.00,-0.02,0.00,0.01,0.86,-0.01,-9.73,-0.00,0.02,-0.00,1.16,4.54,-8.32,0.00,0.02,-0.01,0.95,-0.27,0.01,0.73,-0.06,0.12,R
10.173,0,255,255,0,255,-5.23,4.20,-7.01,0.01,0.01,-0.01,-0.40,3.88,-9.01,-0.01,0.03,0.00,0.11,6.76,-7.05,-0.02,0.01,0.00,0.87,0.01,-9.80,-0.01,0.02,0.00,1.13,4.58,-8.37,0.01,0.02,-0.01,0.95,-0.27,0.01,0.61,0.00,0.06,R
10.224,0,255,255,255,255,-5.20,4.18,-7.13,0.00,0.01,-0.00,-0.35,3.93,-9.02,-0.01,0.03,0.00,0.13,6.77,-7.01,-0.03,0.01,0.00,0.82,0.08,-9.78,-0.01,0.01,-0.01,1.22,4.62,-8.40,0.00,0.02,-0.01,0.95,-0.27,0.01,0.67,-0.12,0.06,R
10.277,0,255,0,0,255,-5.20,4.18,-7.02,0.00,0.01,-0.00,-0.43,3.90,-9.01,-0.01,0.02,-0.00,0.09,6.80,-7.05,-0.03,0.01,0.00,0.84,0.02,-9.77,-0.01,0.02,-0.00,1.14,4.64,-8.32,0.00,0.02,-0.01,0.95,-0.27,0.01,0.73,-0.12,0.06,R
10.326,0,255,255,0,255,-5.23,4.19,-7.08,0.00,0.01,-0.00,-0.41,3.87,-9.01,-0.01,0.03,0.00,0.12,6.76,-7.05,-0.02,0.01,0.00,0.83,-0.00,-9.73,-0.01,0.02,-0.00,1.18,4.63,-8.37,0.00,0.02,-0.00,0.95,-0.27,0.01,0.67,-0.12,0.00,R
10.378,0,255,0,0,255,-5.21,4.15,-7.06,0.00,0.01,-0.00,-0.41,3.89,-9.01,-0.01,0.02,0.00,0.13,6.79,-7.06,-0.03,0.01,0.00,0.86,0.04,-9.76,-0.01,0.02,0.00,1.17,4.62,-8.33,0.00,0.02,-0.01,0.95,-0.27,0.01,0.67,-0.06,0.06,R
10.428,0,255,0,255,255,-5.22,4.19,-7.06,0.00,0.01,-0.00,-0.42,3.91,-9.02,-0.01,0.02,0.00,0.14,6.79,-7.02,-0.03,0.01,0.00,0.84,0.01,-9.81,-0.01,0.01,-0.00,1.16,4.61,-8.41,0.01,0.02,-0.01,0.95,-0.27,0.01,0.73,-0.06,0.24,R
10.481,0,255,255,0,255,-5.23,4.25,-7.06,0.00,0.01,-0.00,-0.43,3.86,-9.00,-0.01,0.02,0.00,0.11,6.79,-7.03,-0.02,0.01,0.00,0.81,0.07,-9.78,-0.01,0.02,-0.00,1.19,4.56,-8.37,0.01,0.02,-0.01,0.95,-0.27,0.01,0.67,-0.12,-0.06,R
10.53,0,255,255,255,255,-5.20,4.19,-7.04,0.01,0.01,-0.01,-0.40,3.90,-8.97,-0.01,0.03,0.01,0.17,6.79,-7.06,-0.03,0.01,0.00,0.85,0.04,-9.79,-0.00,0.02,0.00,1.18,4.62,-8.35,0.01,0.02,-0.01,0.95,-0.27,0.01,0.67,-0.06,0.00,R
10.581,0,255,255,255,255,-5.26,4.22,-7.07,0.00,0.01,-0.01,-0.40,3.89,-9.04,-0.01,0.03,0.01,0.15,6.77,-7.02,-0.02,0.01,0.00,0.80,0.08,-9.80,-0.01,0.02,-0.01,1.17,4.60,-8.39,0.01,0.02,-0.01,0.95,-0.27,0.01,0.67,-0.06,0.06,R
10.633,0,255,0,255,255,-5.21,4.24,-7.06,0.00,0.01,-0.00,-0.40,3.88,-9.00,-0.01,0.02,-0.00,0.12,6.85,-7.06,-0.02,0.00,0.01,0.79,0.05,-9.74,-0.01,0.02,-0.00,1.20,4.59,-8.37,0.01,0.02,-0.01,0.95,-0.27,0.01,0.73,-0.06,0.12,R
10.683,0,255,0,0,255,-5.19,4.20,-7.11,0.01,0.01,-0.01,-0.43,3.85,-9.04,0.00,0.02,0.00,0.12,6.74,-7.03,-0.02,0.00,0.00,0.85,0.01,-9.72,-0.01,0.02,-0.00,1.17,4.64,-8.41,0.00,0.02,-0.01,0.95,-0.27,0.01,0.67,-0.12,0.00,R
10.735,0,255,0,255,255,-5.20,4.23,-7.06,0.00,0.01,-0.00,-0.42,3.86,-9.01,-0.01,0.02,0.00,0.16,6.81,-7.00,-0.03,0.01,0.00,0.87,0.07,-9.82,-0.01,0.01,0.00,1.17,4.56,-8.32,0.01,0.02,-0.01,0.95,-0.27,0.01,0.67,-0.06,0.06,R
10.783,0,255,255,0,255,-5.23,4.21,-7.04,0.00,0.01,-0.01,-0.43,3.90,-8.99,-0.00,0.03,0.01,0.12,6.84,-7.06,-0.03,0.01,-0.00,0.85,0.00,-9.79,-0.00,0.02,0.00,1.19,4.62,-8.31,0.00,0.02,-0.01,0.95,-0.27,0.01,0.67,-0.06,0.12,R
10.836,255,255,0,255,255,-5.21,4.20,-7.10,0.00,0.01,-0.00,-0.40,3.92,-9.06,-0.01,0.03,0.00,0.14,6.81,-7.04,-0.02,0.01,0.00,0.80,0.02,-9.78,-0.01,0.01,-0.00,1.19,4.64,-8.37,0.00,0.02,-0.01,0.95,-0.27,0.01,0.67,0.00,0.06,R
10.887,0,255,0,255,255,-5.18,4.19,-7.02,0.00,0.02,-0.00,-0.41,3.87,-9.03,-0.01,0.02,0.00,0.13,6.77,-7.04,-0.02,0.01,0.00,0.85,0.06,-9.84,-0.01,0.02,-0.00,1.14,4.55,-8.39,0.01,0.02,-0.00,0.95,-0.27,0.01,0.61,-0.06,0.00,R
10.939,0,255,255,0,255,-5.20,4.17,-7.06,0.01,0.01,-0.01,-0.45,3.89,-9.02,-0.01,0.03,0.00,0.14,6.79,-7.06,-0.03,0.00,-0.00,0.85,0.05,-9.79,-0.01,0.01,0.00,1.18,4.61,-8.30,0.00,0.02,-0.01,0.95,-0.27,0.01,0.73,-0.06,0.00,R
10.989,0,255,255,255,255,-5.21,4.19,-7.08,0.01,0.01,-0.00,-0.41,3.93,-9.02,-0.01,0.02,0.01,0.16,6.79,-7.03,-0.03,0.01,-0.00,0.86,-0.01,-9.75,-0.01,0.01,-0.00,1.14,4.62,-8.35,0.01,0.02,-0.01,0.95,-0.27,0.01,0.73,-0.06,-0.06,R
11.04,0,255,255,255,255,-5.22,4.20,-7.08,0.00,0.01,-0.00,-0.38,3.93,-9.00,-0.01,0.03,0.00,0.11,6.79,-7.03,-0.02,0.01,0.00,0.82,0.02,-9.80,-0.01,0.02,-0.00,1.15,4.65,-8.34,0.01,0.02,-0.01,0.95,-0.28,0.01,0.67,-0.06,0.00,R
11.089,0,255,0,255,255,-5.17,4.15,-7.07,0.00,0.01,-0.01,-0.40,3.88,-9.00,-0.01,0.02,0.00,0.17,6.83,-7.02,-0.03,0.01,0.00,0.79,0.00,-9.82,-0.01,0.02,-0.00,1.16,4.59,-8.38,0.00,0.02,-0.01,0.95,-0.27,0.01,0.67,0.00,0.12,R
11.143,0,255,255,0,255,-5.20,4.20,-7.07,0.00,0.01,-0.00,-0.39,3.91,-9.01,-0.01,0.03,-0.00,0.17,6.80,-7.02,-0.04,0.01,-0.00,0.85,0.02,-9.77,-0.01,0.02,-0.00,1.14,4.58,-8.40,0.01,0.02,-0.01,0.95,-0.27,0.01,0.73,-0.12,0.06,R
11.192,0,255,255,0,255,-5.25,4.19,-7.07,-0.00,0.01,-0.00,-0.44,3.86,-9.01,-0.01,0.03,0.00,0.01,6.84,-7.06,-0.02,0.00,0.01,0.87,0.03,-9.79,-0.00,0.02,0.00,1.14,4.56,-8.32,0.00,0.02,-0.01,0.95,-0.27,0.01,0.73,-0.12,0.06,R
11.245,0,255,255,0,255,-5.24,4.16,-7.06,0.00,0.01,0.00,-0.41,3.88,-8.96,-0.01,0.03,0.00,0.11,6.80,-7.10,-0.02,0.01,0.00,0.87,-0.01,-9.76,-0.01,0.02,-0.00,1.20,4.58,-8.34,0.01,0.02,-0.01,0.95,-0.27,0.01,0.67,-0.06,0.00,R
11.295,0,255,255,0,255,-5.28,4.15,-7.05,0.00,0.01,-0.00,-0.43,3.87,-9.00,-0.01,0.02,0.00,0.10,6.75,-7.09,-0.03,0.01,0.01,0.84,0.03,-9.80,-0.01,0.01,-0.00,1.21,4.60,-8.38,0.01,0.02,-0.01,0.95,-0.27,0.01,0.73,-0.06,0.12,R
11.346,0,255,0,255,255,-5.17,4.14,-7.06,0.01,0.01,-0.01,-0.43,3.86,-9.04,-0.01,0.03,0.01,0.09,6.80,-7.06,-0.03,0.01,0.01,0.86,0.00,-9.74,-0.01,0.02,0.00,1.18,4.62,-8.33,0.01,0.02,-0.01,0.95,-0.27,0.01,0.73,0.00,0.06,R
11.397,0,255,255,0,255,-5.24,4.17,-7.11,0.01,0.01,-0.01,-0.37,3.85,-9.04,-0.01,0.02,0.00,0.07,6.80,-7.02,-0.02,0.00,0.00,0.88,0.02,-9.76,-0.01,0.01,-0.00,1.19,4.57,-8.39,0.01,0.02,-0.01,0.95,-0.27,0.01,0.67,-0.06,0.12,R
11.448,0,255,255,0,255,-5.24,4.21,-7.03,0.01,0.01,-0.01,-0.44,3.88,-9.00,-0.01,0.02,0.00,0.13,6.86,-7.05,-0.02,0.01,0.00,0.86,0.00,-9.82,-0.00,0.01,0.00,1.20,4.62,-8.34,0.01,0.02,-0.01,0.95,-0.28,0.01,0.67,-0.12,0.06,R
11.499,0,255,255,0,255,-5.20,4.22,-7.09,0.00,0.01,-0.00,-0.44,3.88,-8.97,-0.01,0.02,-0.00,0.15,6.82,-7.05,-0.03,0.01,0.01,0.83,0.02,-9.80,-0.01,0.01,-0.00,1.16,4.56,-8.35,0.01,0.02,-0.01,0.95,-0.27,0.01,0.67,-0.06,-0.06,R
11.55,0,255,0,255,255,-5.22,4.19,-7.06,0.00,0.01,-0.00,-0.44,3.90,-9.01,-0.02,0.02,0.00,0.19,6.79,-7.07,-0.03,0.01,0.00,0.91,-0.01,-9.74,-0.01,0.02,-0.00,1.19,4.61,-8.37,0.01,0.02,-0.01,0.95,-0.27,0.01,0.61,-0.06,0.00,R
11.601,0,255,255,0,255,-5.19,4.13,-7.07,0.00,0.01,-0.00,-0.46,3.87,-8.97,-0.01,0.03,0.00,0.13,6.80,-7.03,-0.03,0.00,0.00,0.81,-0.01,-9.78,-0.00,0.01,-0.00,1.18,4.65,-8.33,0.00,0.02,-0.01,0.95,-0.27,0.01,0.73,0.00,0.06,R
11.652,255,255,0,255,255,-5.16,4.22,-7.06,0.00,0.01,-0.01,-0.42,3.92,-9.04,-0.01,0.02,0.00,0.12,6.80,-7.04,-0.03,0.01,0.01,0.83,0.04,-9.77,-0.01,0.01,0.00,1.17,4.64,-8.39,-0.00,0.02,-0.01,0.95,-0.27,0.01,0.67,-0.06,0.06,R
11.703,0,255,255,0,255,-5.28,4.22,-7.08,0.01,0.01,-0.00,-0.38,3.88,-9.02,-0.01,0.02,0.00,0.06,6.77,-7.04,-0.03,0.01,0.01,0.87,0.04,-9.78,-0.00,0.02,0.00,1.21,4.58,-8.37,0.01,0.02,-0.01,0.95,-0.27,0.01,0.67,-0.06,0.06,R
11.755,0,255,255,255,255,-5.24,4.20,-7.07,0.00,0.01,-0.00,-0.41,3.94,-9.05,-0.01,0.03,-0.00,0.10,6.84,-7.02,-0.03,0.01,-0.00,0.82,0.02,-9.77,-0.00,0.02,0.00,1.14,4.61,-8.38,0.00,0.02,-0.01,0.95,-0.27,0.01,0.67,-0.12,0.06,R
11.806,0,255,255,0,255,-5.25,4.15,-7.07,0.00,0.01,-0.01,-0.39,3.89,-9.05,-0.01,0.02,-0.00,0.06,6.81,-7.02,-0.02,0.01,0.00,0.89,0.01,-9.79,-0.01,0.02,-0.00,1.18,4.64,-8.35,0.01,0.02,-0.01,0.95,-0.27,0.01,0.73,-0.06,0.12,R
11.855,0,255,255,0,255,-5.22,4.15,-7.04,0.01,0.01,0.00,-0.34,3.88,-8.98,-0.01,0.02,0.00,0.06,6.79,-6.99,-0.02,0.01,0.01,0.88,0.02,-9.76,-0.00,0.02,0.00,1.23,4.64,-8.31,0.01,0.02,-0.01,0.95,-0.27,0.01,0.73,-0.06,0.06,R
11.906,0,255,255,0,255,-5.24,4.13,-7.03,0.01,0.01,-0.01,-0.43,3.90,-9.02,-0.01,0.02,0.00,0.16,6.83,-7.01,-0.03,0.01,0.00,0.86,0.05,-9.78,-0.01,0.01,0.00,1.15,4.64,-8.32,0.00,0.02,-0.01,0.95,-0.27,0.01,0.67,-0.06,0.06,R
11.958,0,255,0,0,255,-5.23,4.16,-7.10,0.01,0.01,-0.00,-0.42,3.88,-8.97,-0.01,0.03,0.01,0.17,6.76,-7.03,-0.03,0.01,0.00,0.83,-0.01,-9.77,-0.01,0.02,0.00,1.19,4.61,-8.36,0.01,0.02,-0.00,0.95,-0.27,0.01,0.73,-0.12,0.12,R
12.007,0,255,255,0,255,-5.25,4.23,-7.08,0.00,0.01,-0.00,-0.41,3.94,-8.99,-0.01,0.02,0.00,0.04,6.80,-7.02,-0.02,0.01,0.01,0.79,-0.01,-9.84,-0.01,0.02,-0.00,1.18,4.59,-8.37,0.01,0.02,-0.00,0.95,-0.27,0.01,0.73,-0.12,0.00,R
12.058,0,255,0,0,255,-5.15,4.21,-7.12,0.01,0.02,-0.00,-0.46,3.88,-9.01,-0.01,0.03,-0.00,0.12,6.78,-7.02,-0.03,0.01,0.00,0.83,0.07,-9.75,-0.01,0.02,0.00,1.18,4.58,-8.32,0.01,0.02,-0.01,0.95,-0.27,0.01,0.67,-0.06,0.12,R
12.11,0,255,255,0,255,-5.28,4.22,-7.10,-0.00,0.01,0.00,-0.45,3.87,-9.06,-0.01,0.02,0.01,0.14,6.78,-7.03,-0.03,0.00,0.01,0.87,0.03,-9.78,-0.00,0.01,0.00,1.16,4.59,-8.35,0.00,0.02,-0.01,0.95,-0.27,0.01,0.67,-0.06,0.00,R
12.162,0,255,255,255,255,-5.21,4.20,-7.04,0.00,0.01,-0.01,-0.37,3.86,-8.97,-0.01,0.03,0.00,0.05,6.77,-7.05,-0.03,0.01,-0.00,0.89,0.01,-9.81,-0.00,0.02,-0.00,1.17,4.61,-8.37,0.00,0.02,-0.01,0.95,-0.27,0.01,0.67,-0.12,0.06,R
12.213,0,255,0,0,255,-5.26,4.19,-7.02,0.00,0.01,-0.01,-0.44,3.89,-9.02,-0.01,0.03,0.00,0.06,6.75,-7.08,-0.02,0.01,0.00,0.87,-0.02,-9.78,-0.01,0.01,0.00,1.18,4.64,-8.42,0.01,0.01,-0.00,0.95,-0.28,0.01,0.67,-0.06,0.06,R
12.263,0,255,0,0,255,-5.17,4.10,-7.10,0.00,0.01,-0.00,-0.39,3.90,-8.99,-0.01,0.02,0.00,0.14,6.79,-7.05,-0.03,0.01,-0.01,0.86,0.02,-9.84,-0.01,0.02,-0.00,1.15,4.60,-8.37,0.01,0.02,-0.01,0.95,-0.27,0.01,0.67,-0.06,0.12,R
12.315,0,255,255,255,255,-5.17,4.22,-7.08,0.00,0.01,-0.00,-0.41,3.87,-8.98,-0.01,0.02,0.00,0.11,6.79,-7.06,-0.03,0.00,0.00,0.87,0.05,-9.80,-0.00,0.02,-0.00,1.16,4.57,-8.39,0.01,0.02,-0.01,0.95,-0.27,0.01,0.67,-0.12,0.06,R
12.367,0,255,255,0,255,-5.21,4.24,-7.02,0.00,0.01,-0.00,-0.41,3.85,-9.02,-0.02,0.02,0.00,0.11,6.77,-7.04,-0.03,0.01,0.00,0.89,-0.01,-9.79,-0.01,0.01,-0.00,1.23,4.60,-8.36,0.00,0.02,-0.01,0.95,-0.27,0.01,0.73,-0.12,0.06,R
12.416,0,255,255,255,255,-5.19,4.18,-7.09,0.00,0.01,-0.01,-0.38,3.88,-9.02,-0.00,0.03,0.00,0.15,6.77,-7.03,-0.02,0.01,0.01,0.85,0.02,-9.77,-0.01,0.01,0.00,1.18,4.59,-8.37,0.01,0.02,-0.01,0.95,-0.28,0.01,0.67,-0.06,0.00,R
12.467,0,255,255,0,255,-5.23,4.18,-7.09,0.01,0.01,-0.01,-0.40,3.86,-8.98,-0.01,0.02,0.00,0.18,6.79,-7.02,-0.02,0.01,0.00,0.86,0.03,-9.75,-0.00,0.02,-0.00,1.18,4.66,-8.35,0.01,0.02,-0.01,0.95,-0.27,0.01,0.67,-0.12,0.00,R
12.519,0,255,255,0,255,-5.17,4.16,-7.09,0.00,0.02,-0.00,-0.42,3.89,-9.00,-0.01,0.03,-0.00,0.13,6.76,-7.06,-0.03,0.01,0.00,0.84,0.04,-9.81,-0.01,0.02,-0.01,1.22,4.64,-8.37,0.00,0.02,-0.01,0.95,-0.27,0.01,0.73,-0.06,0.06,R
12.569,0,255,0,0,255,-5.21,4.19,-7.09,0.00,0.02,-0.00,-0.43,3.82,-9.02,-0.01,0.03,0.01,0.08,6.79,-7.03,-0.02,0.00,0.00,0.84,0.02,-9.81,-0.00,0.02,-0.00,1.18,4.58,-8.39,-0.00,0.02,-0.01,0.95,-0.27,0.01,0.67,-0.12,0.00,R
12.62,0,255,255,0,255,-5.16,4.19,-7.03,0.01,0.01,-0.00,-0.44,3.87,-8.98,-0.01,0.02,0.01,0.09,6.80,-7.03,-0.02,0.01,-0.00,0.79,0.02,-9.76,-0.01,0.01,-0.00,1.23,4.60,-8.33,0.01,0.02,-0.01,0.95,-0.27,0.01,0.73,-0.12,0.06,R
12.671,0,255,255,255,255,-5.25,4.18,-7.02,0.00,0.01,-0.01,-0.46,3.92,-9.07,-0.01,0.02,0.00,0.16,6.78,-7.03,-0.03,0.00,0.00,0.78,0.04,-9.76,-0.00,0.02,0.00,1.13,4.62,-8.35,0.00,0.01,-0.01,0.95,-0.27,0.01,0.67,0.00,0.18,R
12.721,0,255,255,255,255,-5.24,4.21,-7.00,0.00,0.01,-0.00,-0.41,3.89,-8.97,-0.01,0.03,0.01,0.07,6.82,-7.06,-0.01,0.01,0.01,0.82,0.02,-9.81,-0.00,0.02,0.00,1.20,4.65,-8.39,0.00,0.02,-0.01,0.95,-0.27,0.01,0.61,-0.12,0.06,R
12.772,0,255,255,0,255,-5.23,4.22,-7.03,0.00,0.01,-0.00,-0.40,3.91,-8.98,-0.03,0.03,0.00,0.18,6.81,-7.02,-0.03,0.01,0.00,0.80,-0.00,-9.78,-0.00,0.02,-0.00,1.18,4.57,-8.35,0.01,0.02,-0.01,0.95,-0.27,0.01,0.73,-0.06,0.12,R
12.825,0,255,255,255,255,-5.15,4.20,-7.08,0.00,0.01,-0.00,-0.42,3.92,-9.02,-0.01,0.03,0.00,0.14,6.80,-7.03,-0.03,0.01,-0.00,0.81,0.01,-9.79,-0.01,0.01,-0.00,1.23,4.61,-8.41,0.01,0.02,-0.01,0.95,-0.27,0.01,0.67,-0.06,0.06,R
12.875,0,255,0,0,255,-5.22,4.21,-7.11,0.00,0.01,-0.00,-0.40,3.88,-9.05,-0.01,0.03,0.00,0.11,6.78,-7.02,-0.03,0.01,0.00,0.87,0.02,-9.82,-0.01,0.02,0.00,1.22,4.62,-8.39,0.01,0.02,-0.01,0.95,-0.27,0.01,0.73,-0.12,0.06,R
12.925,0,255,255,0,255,-5.24,4.19,-7.04,0.00,0.01,-0.00,-0.39,3.94,-9.01,-0.01,0.02,-0.00,0.12,6.77,-7.06,-0.02,0.01,0.00,0.82,0.03,-9.73,-0.00,0.02,-0.01,1.19,4.60,-8.37,0.01,0.01,-0.01,0.95,-0.27,0.01,0.73,-0.12,0.12,R
12.978,0,255,255,0,255,-5.20,4.19,-7.13,0.01,0.01,0.00,-0.44,3.86,-8.98,-0.01,0.03,0.00,0.11,6.84,-7.03,-0.03,0.01,0.00,0.80,0.03,-9.77,-0.01,0.02,0.00,1.15,4.62,-8.39,0.00,0.02,-0.01,0.95,-0.27,0.01,0.67,-0.06,0.12,R
13.03,0,255,255,255,255,-5.20,4.19,-7.05,0.00,0.02,-0.00,-0.41,3.89,-9.01,-0.00,0.03,0.00,0.09,6.75,-7.07,-0.02,0.01,0.00,0.85,0.04,-9.79,-0.01,0.01,-0.00,1.22,4.63,-8.32,0.01,0.02,-0.01,0.95,-0.27,0.01,0.73,-0.06,0.06,R
13.08,0,255,0,255,255,-5.19,4.20,-7.05,0.01,0.01,-0.01,-0.37,3.90,-9.00,-0.01,0.02,0.00,0.07,6.82,-7.04,-0.02,0.01,0.00,0.84,0.04,-9.79,-0.00,0.02,-0.00,1.18,4.59,-8.35,0.01,0.02,-0.01,0.95,-0.27,0.01,0.73,-0.12,0.12,R
13.131,0,255,255,255,255,-5.18,4.20,-7.10,0.01,0.01,-0.00,-0.42,3.86,-9.02,-0.01,0.03,-0.00,0.15,6.78,-7.03,-0.02,0.01,0.01,0.88,-0.01,-9.77,-0.01,0.02,-0.00,1.15,4.61,-8.37,0.00,0.02,-0.01,0.95,-0.27,0.01,0.73,-0.12,0.12,R
13.182,0,255,0,255,255,-5.17,4.20,-7.05,0.00,0.01,-0.01,-0.40,3.92,-8.97,-0.01,0.02,0.00,0.11,6.81,-7.02,-0.02,0.01,0.00,0.87,-0.01,-9.77,-0.00,0.01,0.00,1.25,4.56,-8.32,0.00,0.01,-0.01,0.95,-0.27,0.01,0.67,-0.06,0.00,R
13.234,0,255,255,0,255,-5.20,4.11,-7.06,0.01,0.01,-0.01,-0.44,3.81,-8.97,-0.02,0.03,0.00,0.12,6.79,-7.04,-0.04,0.01,0.00,0.80,0.02,-9.74,-0.01,0.01,-0.00,1.18,4.61,-8.35,-0.01,0.02,-0.01,0.95,-0.27,0.01,0.73,-0.06,0.06,R
13.284,0,255,0,0,255,-5.20,4.17,-7.11,0.01,0.01,-0.00,-0.38,3.87,-9.01,0.00,0.03,-0.00,0.13,6.77,-7.10,-0.03,0.01,0.00,0.83,0.01,-9.77,-0.00,0.02,-0.00,1.14,4.62,-8.35,0.00,0.02,-0.01,0.95,-0.28,0.01,0.61,-0.06,-0.06,R
13.336,0,255,255,0,255,-5.21,4.16,-7.10,0.00,0.01,-0.01,-0.43,3.88,-8.99,-0.01,0.02,-0.00,0.15,6.82,-7.05,-0.02,0.00,0.00,0.88,0.02,-9.74,-0.01,0.01,-0.00,1.21,4.64,-8.39,0.01,0.02,-0.01,0.95,-0.27,0.01,0.67,-0.06,0.12,R
13.386,0,255,255,0,255,-5.21,4.16,-7.11,0.00,0.01,-0.00,-0.42,3.88,-9.00,-0.01,0.03,-0.00,0.11,6.81,-7.04,-0.03,0.01,0.00,0.88,0.03,-9.75,-0.00,0.02,-0.00,1.19,4.65,-8.32,0.00,0.02,-0.01,0.95,-0.27,0.01,0.67,-0.12,0.06,R
13.437,0,255,255,0,255,-5.14,4.19,-7.07,0.01,0.01,-0.01,-0.42,3.87,-9.00,-0.01,0.02,0.00,0.15,6.79,-7.02,-0.02,0.00,0.01,0.82,0.01,-9.78,-0.00,0.02,-0.00,1.21,4.57,-8.39,0.01,0.02,-0.01,0.95,-0.27,0.01,0.73,0.00,0.06,R
13.488,0,255,0,0,255,-5.19,4.19,-7.04,0.00,0.01,-0.01,-0.41,3.88,-9.02,-0.02,0.03,-0.00,0.16,6.82,-7.03,-0.02,0.01,0.00,0.84,-0.05,-9.78,-0.00,0.02,0.00,1.17,4.62,-8.38,0.01,0.02,-0.01,0.95,-0.27,0.01,0.67,-0.12,0.06,R
13.54,255,255,255,255,255,-5.20,4.14,-7.06,0.00,0.01,-0.00,-0.38,3.85,-8.97,-0.02,0.03,0.00,0.10,6.83,-7.02,-0.04,0.01,0.00,0.86,0.02,-9.78,-0.01,0.02,0.00,1.18,4.61,-8.41,0.01,0.02,-0.01,0.95,-0.27,0.01,0.67,-0.06,0.12,R
13.59,0,255,255,0,255,-5.23,4.19,-7.06,0.01,0.02,-0.00,-0.41,3.89,-9.01,0.00,0.03,0.01,0.09,6.79,-7.04,-0.02,0.00,0.00,0.87,0.07,-9.76,-0.01,0.02,0.00,1.15,4.65,-8.30,0.01,0.01,-0.00,0.95,-0.27,0.01,0.61,-0.06,0.00,R
13.641,0,255,255,0,255,-5.20,4.18,-7.03,0.00,0.01,-0.00,-0.44,3.85,-8.98,-0.02,0.03,0.00,0.12,6.80,-7.08,-0.03,0.01,0.00,0.84,-0.01,-9.82,-0.01,0.01,0.00,1.15,4.59,-8.33,0.01,0.02,-0.01,0.95,-0.27,0.01,0.79,-0.12,0.06,R
13.692,0,255,255,0,255,-5.21,4.23,-7.06,0.00,0.01,-0.00,-0.44,3.88,-9.04,-0.01,0.02,0.00,0.12,6.82,-7.08,-0.02,0.01,0.00,0.85,0.08,-9.82,-0.00,0.02,-0.00,1.21,4.60,-8.34,0.01,0.02,-0.01,0.95,-0.27,0.01,0.67,-0.06,-0.06,R
13.743,0,255,0,0,255,-5.27,4.11,-7.13,-0.01,0.01,-0.00,-0.38,3.87,-8.98,-0.01,0.03,0.00,0.14,6.81,-7.07,-0.03,0.01,0.01,0.84,0.07,-9.78,-0.01,0.02,-0.00,1.19,4.58,-8.41,0.00,0.02,-0.01,0.95,-0.27,0.01,0.73,-0.06,0.12,R
13.795,0,255,255,0,255,-5.24,4.21,-7.08,0.01,0.01,-0.00,-0.45,3.85,-9.00,-0.01,0.03,-0.00,0.15,6.80,-7.06,-0.02,0.01,0.01,0.87,-0.02,-9.77,-0.01,0.02,-0.00,1.17,4.57,-8.38,0.00,0.02,-0.01,0.95,-0.27,0.01,0.73,-0.06,0.06,R
13.845,0,255,255,255,255,-5.24,4.14,-7.06,0.00,0.01,-0.00,-0.45,3.87,-8.97,-0.01,0.03,0.00,0.11,6.79,-7.05,-0.03,0.01,0.00,0.84,0.05,-9.78,-0.00,0.02,-0.00,1.17,4.63,-8.37,-0.00,0.02,-0.01,0.95,-0.27,0.01,0.67,-0.06,0.12,R
13.896,0,255,255,0,255,-5.24,4.16,-7.09,0.00,0.01,-0.01,-0.38,3.88,-9.04,-0.01,0.03,0.01,0.06,6.81,-7.10,-0.03,0.00,0.00,0.87,0.04,-9.80,-0.00,0.01,-0.00,1.13,4.67,-8.36,0.00,0.02,-0.01,0.95,-0.27,0.01,0.73,-0.12,0.00,R
13.947,0,255,255,0,255,-5.20,4.19,-7.04,0.00,0.01,-0.00,-0.41,3.85,-9.00,-0.01,0.02,0.01,0.11,6.80,-7.05,-0.03,0.01,0.00,0.85,0.03,-9.78,-0.01,0.02,-0.01,1.21,4.64,-8.33,0.01,0.01,-0.01,0.95,-0.27,0.01,0.67,-0.12,0.06,R
13.998,0,255,255,0,255,-5.18,4.19,-7.13,0.00,0.01,0.00,-0.36,3.86,-9.02,-0.01,0.03,0.00,0.14,6.74,-7.08,-0.03,0.01,0.00,0.88,0.00,-9.77,-0.01,0.02,0.00,1.18,4.57,-8.34,-0.00,0.02,-0.01,0.95,-0.27,0.01,0.67,0.00,0.06,R
14.048,0,255,255,0,255,-5.22,4.20,-7.09,0.00,0.01,-0.01,-0.39,3.91,-9.04,-0.01,0.02,0.00,0.10,6.80,-7.05,-0.03,0.01,0.01,0.83,0.04,-9.78,-0.01,0.01,-0.00,1.20,4.64,-8.34,0.01,0.02,-0.01,0.95,-0.27,0.01,0.67,-0.12,0.00,R
14.098,0,255,255,0,255,-5.26,4.20,-7.05,0.00,0.01,-0.00,-0.34,3.85,-9.02,-0.01,0.02,0.00,0.14,6.80,-7.02,-0.03,0.01,0.00,0.91,0.03,-9.79,-0.01,0.02,-0.00,1.20,4.62,-8.39,0.01,0.02,-0.01,0.95,-0.27,0.01,0.61,-0.06,0.06,R
14.151,0,255,255,0,255,-5.20,4.22,-7.12,-0.00,0.01,-0.00,-0.39,3.85,-9.05,-0.01,0.02,0.00,0.12,6.81,-7.08,-0.02,0.01,0.00,0.81,0.02,-9.79,-0.01,0.02,0.00,1.16,4.64,-8.35,0.00,0.02,-0.01,0.95,-0.27,0.01,0.61,-0.06,0.06,R
14.2,0,255,255,0,255,-5.18,4.22,-7.06,-0.00,0.01,-0.01,-0.37,3.85,-9.01,-0.01,0.03,0.01,0.16,6.78,-7.02,-0.03,0.01,0.00,0.82,0.03,-9.76,-0.01,0.01,-0.00,1.17,4.60,-8.32,0.00,0.02,-0.01,0.95,-0.27,0.01,0.67,0.00,0.06,R
14.251,0,255,255,0,255,-5.20,4.23,-7.03,0.00,0.01,-0.01,-0.37,3.85,-9.02,-0.02,0.02,0.00,0.12,6.80,-7.07,-0.03,0.00,0.00,0.81,0.02,-9.80,-0.01,0.01,-0.00,1.17,4.60,-8.36,0.00,0.02,-0.01,0.95,-0.27,0.01,0.67,-0.06,0.12,R
14.303,0,255,255,0,255,-5.25,4.19,-7.04,0.00,0.01,-0.00,-0.44,3.87,-8.99,-0.01,0.03,-0.00,0.17,6.78,-7.03,-0.03,0.01,-0.00,0.80,-0.02,-9.77,-0.01,0.01,0.00,1.20,4.59,-8.37,0.00,0.02,-0.01,0.95,-0.27,0.01,0.73,-0.18,0.12,R
14.354,0,255,0,255,255,-5.24,4.11,-7.08,0.00,0.02,-0.00,-0.40,3.85,-8.99,-0.01,0.02,0.00,0.09,6.80,-7.06,-0.03,0.01,0.00,0.88,0.04,-9.81,0.00,0.02,-0.00,1.16,4.61,-8.37,0.00,0.02,-0.01,0.95,-0.27,0.01,0.73,-0.12,0.06,R
14.406,0,255,255,255,255,-5.17,4.17,-7.10,0.00,0.01,-0.01,-0.41,3.87,-9.01,-0.01,0.02,0.00,0.13,6.76,-7.05,-0.03,0.01,0.00,0.82,-0.02,-9.79,-0.01,0.01,-0.00,1.21,4.61,-8.35,0.00,0.02,-0.01,0.95,-0.27,0.01,0.73,-0.18,0.06,R
14.457,0,255,255,0,255,-5.20,4.14,-7.09,0.00,0.01,-0.00,-0.45,3.90,-9.00,-0.01,0.03,0.00,0.15,6.78,-7.04,-0.03,0.01,0.00,0.83,0.04,-9.78,-0.01,0.02,-0.00,1.15,4.53,-8.34,0.00,0.02,-0.01,0.95,-0.27,0.01,0.73,-0.12,0.06,R
14.506,0,255,0,0,255,-5.21,4.18,-7.04,0.00,0.01,-0.01,-0.40,3.89,-9.03,-0.01,0.03,-0.00,0.08,6.81,-7.06,-0.03,0.01,0.00,0.86,0.03,-9.77,-0.01,0.02,0.00,1.23,4.59,-8.34,0.01,0.02,-0.01,0.95,-0.27,0.01,0.67,-0.06,0.12,R
14.558,0,255,255,0,255,-5.21,4.14,-7.11,0.00,0.01,-0.01,-0.44,3.86,-9.02,-0.00,0.02,0.01,0.13,6.72,-7.04,-0.02,0.01,-0.00,0.82,0.01,-9.78,-0.01,0.02,0.00,1.24,4.61,-8.42,0.01,0.01,-0.01,0.95,-0.27,0.01,0.61,-0.12,0.00,R
14.608,0,255,255,0,255,-5.26,4.19,-7.08,-0.01,0.01,-0.00,-0.43,3.90,-8.95,-0.03,0.03,0.00,0.12,6.81,-7.07,-0.03,0.00,0.00,0.84,0.03,-9.84,-0.01,0.02,0.00,1.17,4.53,-8.37,0.00,0.02,-0.01,0.95,-0.27,0.01,0.73,-0.18,0.06,R
14.659,0,255,0,0,255,-5.15,4.23,-7.06,0.01,0.01,-0.01,-0.34,3.86,-8.95,-0.00,0.03,0.01,0.11,6.81,-7.08,-0.03,0.01,0.00,0.85,0.00,-9.81,-0.00,0.02,0.00,1.17,4.59,-8.35,0.00,0.02,-0.01,0.95,-0.28,0.01,0.61,-0.06,0.12,R
14.712,0,255,255,0,255,-5.21,4.23,-7.04,-0.00,0.01,-0.00,-0.45,3.83,-8.98,-0.01,0.03,0.00,0.11,6.81,-7.04,-0.02,-0.00,0.01,0.84,0.02,-9.81,0.00,0.02,-0.00,1.21,4.57,-8.38,0.00,0.02,-0.01,0.95,-0.27,0.01,0.61,-0.12,0.12,R
14.763,0,255,0,0,255,-5.25,4.17,-7.06,-0.00,0.01,-0.01,-0.40,3.88,-9.00,-0.02,0.02,0.00,0.13,6.80,-7.09,-0.03,0.00,0.00,0.86,0.01,-9.80,-0.01,0.02,-0.00,1.21,4.60,-8.37,0.00,0.02,-0.01,0.95,-0.27,0.01,0.67,-0.12,0.12,R
14.814,0,255,255,0,255,-5.26,4.18,-7.06,0.00,0.01,-0.01,-0.40,3.81,-9.05,-0.01,0.03,0.00,0.15,6.81,-7.06,-0.03,0.00,0.00,0.83,0.00,-9.76,-0.01,0.02,0.00,1.21,4.63,-8.33,0.01,0.02,-0.01,0.95,-0.27,0.01,0.73,-0.18,0.06,R
14.866,0,255,255,0,255,-5.21,4.20,-7.08,-0.00,0.01,-0.01,-0.39,3.87,-9.02,-0.01,0.02,0.00,0.11,6.77,-7.07,-0.04,0.01,0.00,0.84,0.03,-9.78,-0.01,0.02,0.00,1.16,4.63,-8.43,0.01,0.02,-0.01,0.95,-0.27,0.01,0.67,-0.06,0.06,R
14.916,0,255,255,0,255,-5.17,4.15,-7.06,0.00,0.01,-0.01,-0.47,3.88,-9.05,0.00,0.03,0.00,0.14,6.78,-7.09,-0.02,0.00,0.01,0.88,-0.03,-9.79,-0.01,0.02,0.00,1.13,4.59,-8.39,0.01,0.02,-0.01,0.95,-0.27,0.01,0.73,-0.06,0.06,R
14.968,0,255,255,255,255,-5.20,4.20,-7.07,0.00,0.01,-0.00,-0.47,3.95,-8.99,-0.02,0.02,0.00,0.13,6.79,-7.03,-0.04,0.01,0.00,0.86,0.04,-9.82,-0.01,0.01,-0.00,1.20,4.59,-8.37,0.01,0.02,-0.01,0.95,-0.27,0.01,0.67,-0.06,0.00,R
15.017,0,255,255,0,255,-5.25,4.19,-7.07,-0.00,0.01,-0.01,-0.39,3.87,-9.07,-0.01,0.03,0.00,0.07,6.86,-7.03,-0.04,0.00,0.00,0.84,-0.02,-9.80,-0.01,0.01,0.00,1.19,4.57,-8.37,0.00,0.02,-0.00,0.95,-0.27,0.01,0.61,-0.06,0.06,R
15.07,0,255,255,0,255,-5.17,4.16,-7.09,0.00,0.01,0.00,-0.40,3.92,-9.01,-0.00,0.02,0.01,0.12,6.84,-7.10,-0.02,0.01,-0.00,0.83,0.04,-9.79,0.00,0.02,-0.00,1.12,4.63,-8.37,0.01,0.02,-0.01,0.95,-0.27,0.01,0.73,-0.12,0.06,R
15.119,255,255,255,0,255,-5.18,4.23,-7.11,0.00,0.02,-0.00,-0.39,3.82,-9.03,-0.01,0.02,0.00,0.11,6.79,-7.03,-0.03,0.01,-0.00,0.81,0.00,-9.75,-0.00,0.02,-0.00,1.21,4.62,-8.34,0.01,0.02,-0.01,0.95,-0.27,0.01,0.67,-0.12,0.06,R
15.169,0,255,0,0,255,-5.21,4.20,-7.09,0.00,0.01,-0.01,-0.40,3.87,-9.00,-0.01,0.02,0.01,0.13,6.81,-7.11,-0.03,0.01,0.00,0.79,-0.01,-9.80,-0.00,0.02,-0.00,1.20,4.63,-8.36,0.00,0.02,-0.01,0.95,-0.27,0.01,0.67,-0.12,-0.06,R
15.222,0,255,255,0,255,-5.28,4.17,-7.12,0.00,0.01,-0.01,-0.46,3.87,-9.00,-0.01,0.02,0.01,0.14,6.73,-7.05,-0.04,0.01,-0.00,0.81,0.00,-9.78,-0.01,0.02,0.00,1.21,4.65,-8.37,0.01,0.02,-0.01,0.95,-0.27,0.01,0.67,-0.06,0.06,R
15.273,0,255,255,0,255,-5.23,4.22,-7.05,-0.00,0.01,-0.00,-0.39,3.90,-9.01,-0.01,0.03,0.01,0.15,6.76,-7.06,-0.02,0.00,0.00,0.88,0.03,-9.78,-0.01,0.02,0.00,1.18,4.59,-8.36,0.01,0.02,-0.01,0.95,-0.27,0.01,0.73,-0.12,0.06,R
15.324,0,255,255,0,255,-5.22,4.20,-7.04,0.01,0.01,-0.01,-0.41,3.82,-9.02,-0.01,0.02,0.00,0.17,6.83,-7.05,-0.03,0.01,0.00,0.84,-0.01,-9.77,-0.01,0.02,-0.00,1.21,4.59,-8.40,0.00,0.02,-0.01,0.95,-0.27,0.01,0.67,-0.06,0.00,R
15.375,0,255,255,0,255,-5.19,4.23,-7.00,0.00,0.01,0.00,-0.36,3.83,-8.99,-0.01,0.02,0.00,0.12,6.75,-7.02,-0.03,0.01,0.01,0.79,-0.01,-9.77,-0.01,0.02,-0.00,1.18,4.63,-8.34,0.01,0.02,-0.01,0.95,-0.27,0.01,0.67,-0.06,0.06,R
15.425,0,255,255,0,255,-5.30,4.17,-7.04,-0.00,0.01,-0.01,-0.45,3.88,-9.01,-0.01,0.02,0.00,0.12,6.79,-7.03,-0.03,0.01,0.00,0.86,0.06,-9.77,-0.00,0.02,-0.00,1.20,4.64,-8.35,0.01,0.02,-0.01,0.95,-0.27,0.01,0.73,-0.06,0.06,R
15.475,0,255,255,255,255,-5.18,4.17,-7.10,0.00,0.01,-0.00,-0.36,3.84,-9.04,-0.01,0.02,0.01,0.15,6.83,-7.01,-0.02,0.01,0.00,0.88,0.02,-9.78,-0.01,0.02,-0.00,1.21,4.62,-8.31,0.00,0.02,-0.01,0.95,-0.27,0.01,0.73,-0.06,0.06,R
15.528,0,255,255,0,255,-5.19,4.20,-7.09,0.00,0.01,-0.00,-0.42,3.85,-8.99,-0.01,0.03,0.00,0.12,6.80,-7.05,-0.03,0.01,0.00,0.85,0.02,-9.76,-0.01,0.02,0.00,1.14,4.62,-8.35,0.01,0.02,-0.01,0.95,-0.27,0.01,0.67,-0.06,0.00,R
15.58,0,255,0,0,255,-5.20,4.18,-7.07,-0.00,0.01,-0.00,-0.43,3.92,-8.99,-0.01,0.02,-0.00,0.07,6.79,-7.08,-0.03,0.00,0.00,0.85,0.00,-9.80,-0.01,0.02,0.00,1.19,4.61,-8.31,0.00,0.02,-0.01,0.95,-0.27,0.01,0.61,-0.06,0.00,R
15.631,0,255,255,0,255,-5.19,4.23,-7.12,0.00,0.02,-0.01,-0.37,3.88,-9.05,-0.01,0.03,-0.00,0.13,6.79,-7.00,-0.02,0.01,0.00,0.87,0.00,-9.77,-0.01,0.02,0.00,1.13,4.58,-8.40,0.00,0.02,-0.01,0.95,-0.27,0.01,0.73,0.00,0.06,R
15.68,0,255,255,0,255,-5.22,4.21,-7.06,0.00,0.01,-0.01,-0.37,3.89,-9.01,-0.01,0.03,0.01,0.14,6.81,-7.03,-0.03,0.01,0.01,0.88,0.06,-9.78,-0.00,0.01,-0.01,1.16,4.60,-8.34,0.00,0.01,-0.01,0.95,-0.27,0.01,0.61,-0.06,0.12,R
15.732,0,255,255,0,255,-5.26,4.19,-7.12,-0.00,0.01,-0.00,-0.40,3.86,-9.03,-0.01,0.03,0.00,0.19,6.80,-7.08,-0.03,0.01,0.00,0.86,0.06,-9.82,-0.01,0.02,-0.00,1.20,4.59,-8.38,0.00,0.02,-0.01,0.95,-0.27,0.01,0.67,-0.12,0.06,R
15.784,0,255,255,0,255,-5.23,4.18,-7.13,0.00,0.01,-0.01,-0.40,3.89,-9.02,-0.01,0.02,0.00,0.12,6.76,-6.99,-0.02,0.01,0.00,0.89,-0.00,-9.80,-0.00,0.02,-0.00,1.13,4.60,-8.37,0.00,0.02,-0.01,0.95,-0.27,0.01,0.67,-0.12,0.06,R
15.833,0,255,255,255,255,-5.22,4.17,-7.10,0.00,0.01,-0.01,-0.39,3.86,-8.99,-0.01,0.03,0.00,0.06,6.78,-7.05,-0.04,0.01,0.01,0.83,0.04,-9.78,-0.01,0.01,-0.00,1.19,4.66,-8.35,0.01,0.02,-0.01,0.95,-0.27,0.01,0.67,-0.06,0.06,R
15.885,0,255,255,0,255,-5.24,4.19,-7.06,0.00,0.01,-0.00,-0.42,3.85,-9.00,-0.01,0.02,0.00,0.14,6.74,-7.03,-0.03,0.01,0.00,0.83,-0.03,-9.75,-0.01,0.02,-0.00,1.25,4.60,-8.32,0.01,0.02,-0.01,0.95,-0.27,0.01,0.73,-0.12,0.12,R
15.934,0,255,0,0,255,-5.22,4.16,-7.07,0.00,0.01,-0.01,-0.36,3.90,-9.02,-0.01,0.03,0.00,0.10,6.81,-7.03,-0.03,0.01,0.00,0.85,0.02,-9.81,-0.00,0.01,-0.00,1.19,4.64,-8.35,0.00,0.02,-0.01,0.95,-0.27,0.01,0.73,-0.06,0.06,R
15.987,0,255,255,0,255,-5.20,4.22,-7.09,-0.00,0.02,-0.00,-0.44,3.87,-8.96,-0.00,0.02,0.01,0.18,6.83,-7.03,-0.02,0.00,0.00,0.87,0.04,-9.72,-0.01,0.02,-0.01,1.22,4.56,-8.34,0.00,0.02,-0.01,0.95,-0.27,0.01,0.67,-0.12,0.06,R
16.039,0,255,255,255,255,-5.26,4.17,-7.04,0.00,0.01,-0.00,-0.42,3.89,-9.00,-0.01,0.03,0.00,0.13,6.77,-7.02,-0.03,0.00,-0.00,0.83,0.02,-9.78,-0.00,0.02,0.00,1.18,4.67,-8.41,0.00,0.02,-0.00,0.95,-0.27,0.01,0.73,-0.06,0.12,R
16.089,0,255,255,255,255,-5.21,4.19,-7.12,0.01,0.01,0.00,-0.45,3.91,-9.02,-0.00,0.03,0.00,0.14,6.77,-7.05,-0.02,0.01,0.00,0.82,0.04,-9.81,-0.01,0.01,0.00,1.18,4.57,-8.36,0.01,0.02,-0.00,0.95,-0.27,0.01,0.67,-0.18,0.06,R
16.139,0,255,0,0,255,-5.22,4.20,-7.07,0.00,0.01,0.00,-0.42,3.87,-8.98,-0.01,0.02,0.00,0.15,6.72,-7.00,-0.03,0.01,-0.00,0.83,-0.04,-9.73,-0.01,0.01,0.00,1.13,4.60,-8.38,0.00,0.02,-0.01,0.95,-0.27,0.01,0.73,-0.12,0.12,R
16.191,0,255,255,0,255,-5.21,4.19,-7.07,0.00,0.01,-0.00,-0.39,3.88,-9.01,-0.00,0.02,0.00,0.13,6.79,-7.02,-0.02,0.01,0.00,0.79,0.02,-9.78,-0.01,0.02,0.00,1.19,4.63,-8.36,0.00,0.02,-0.00,0.95,-0.27,0.01,0.73,-0.18,0.06,R
16.242,0,255,255,0,255,-5.23,4.18,-7.02,0.00,0.01,-0.00,-0.41,3.89,-8.99,-0.01,0.02,0.00,0.16,6.75,-7.05,-0.03,0.01,0.01,0.83,0.10,-9.73,-0.01,0.02,-0.00,1.18,4.60,-8.37,0.01,0.02,-0.01,0.95,-0.27,0.01,0.73,-0.06,0.06,R
16.293,0,255,255,0,255,-5.28,4.19,-7.07,0.01,0.02,-0.00,-0.42,3.88,-9.00,-0.01,0.02,0.00,0.11,6.81,-7.04,-0.03,0.00,0.00,0.83,0.02,-9.79,-0.01,0.01,0.00,1.14,4.60,-8.38,0.01,0.02,-0.01,0.95,-0.27,0.01,0.61,-0.12,0.06,R
16.344,0,255,255,0,255,-5.17,4.20,-7.03,0.00,0.01,-0.00,-0.37,3.92,-9.05,-0.01,0.02,0.01,0.12,6.80,-7.06,-0.03,0.00,0.00,0.89,0.02,-9.76,-0.01,0.02,-0.00,1.20,4.58,-8.37,0.00,0.02,-0.01,0.95,-0.27,0.01,0.73,-0.12,0.06,R
16.395,0,255,255,0,255,-5.20,4.20,-7.06,-0.00,0.01,0.00,-0.39,3.84,-9.03,-0.01,0.02,0.00,0.13,6.80,-7.06,-0.03,0.01,0.00,0.86,0.03,-9.76,-0.00,0.02,-0.00,1.16,4.67,-8.37,0.01,0.02,-0.01,0.95,-0.27,0.01,0.73,-0.12,0.06,R
16.445,0,255,0,0,255,-5.21,4.18,-7.10,0.00,0.01,-0.00,-0.42,3.88,-8.96,-0.01,0.03,0.00,0.14,6.77,-7.02,-0.03,0.00,0.00,0.87,0.05,-9.76,-0.01,0.01,0.00,1.18,4.66,-8.38,0.01,0.02,-0.00,0.95,-0.27,0.01,0.67,-0.12,0.00,R
16.497,0,255,255,0,255,-5.17,4.22,-7.09,0.01,0.01,-0.00,-0.40,3.78,-9.00,-0.01,0.02,0.01,0.18,6.82,-7.04,-0.03,0.01,-0.00,0.83,0.00,-9.80,-0.01,0.01,-0.00,1.20,4.59,-8.35,0.01,0.02,-0.01,0.95,-0.27,0.01,0.73,-0.06,0.12,R
16.548,0,255,255,0,255,-5.20,4.15,-7.04,0.00,0.01,-0.00,-0.38,3.85,-9.01,-0.00,0.02,0.00,0.21,6.72,-7.03,-0.03,0.01,0.01,0.85,0.11,-9.78,-0.01,0.02,-0.00,1.23,4.56,-8.36,0.01,0.02,-0.01,0.95,-0.27,0.01,0.67,-0.12,0.12,R
16.599,0,255,255,0,255,-5.22,4.21,-7.07,0.00,0.01,-0.01,-0.38,3.91,-9.00,-0.00,0.02,0.01,0.11,6.74,-7.04,-0.03,0.01,0.00,0.89,0.02,-9.76,-0.00,0.01,0.00,1.19,4.64,-8.33,0.00,0.02,-0.01,0.95,-0.27,0.01,0.67,0.00,0.06,R
16.651,0,255,255,0,255,-5.20,4.20,-7.08,-0.00,0.01,-0.01,-0.42,3.91,-9.05,0.00,0.02,0.01,0.10,6.81,-7.05,-0.02,0.01,0.00,0.89,0.00,-9.74,-0.01,0.01,0.00,1.20,4.61,-8.37,0.01,0.02,-0.00,0.95,-0.27,0.01,0.73,0.00,0.00,R
16.702,0,255,255,255,255,-5.21,4.23,-7.07,0.00,0.01,-0.01,-0.43,3.85,-9.00,-0.00,0.03,0.00,0.09,6.76,-7.08,-0.02,0.01,0.01,0.84,0.06,-9.83,-0.01,0.02,0.00,1.20,4.62,-8.34,0.01,0.02,-0.01,0.95,-0.27,0.01,0.67,-0.12,0.06,R
16.752,0,255,0,255,255,-5.19,4.20,-7.05,0.00,0.01,0.00,-0.42,3.85,-8.99,-0.01,0.02,0.00,0.16,6.73,-7.01,-0.03,0.01,-0.00,0.84,0.05,-9.77,-0.01,0.02,0.00,1.18,4.63,-8.30,0.01,0.02,-0.01,0.95,-0.27,0.01,0.73,0.00,0.12,R
16.803,0,255,0,255,255,-5.21,4.15,-7.06,0.01,0.01,-0.01,-0.41,3.89,-9.05,-0.01,0.02,0.00,0.08,6.83,-7.05,-0.03,0.01,0.00,0.85,0.00,-9.77,-0.00,0.02,0.00,1.17,4.61,-8.33,0.00,0.02,-0.01,0.95,-0.27,0.01,0.67,-0.06,0.06,R
16.853,255,255,0,0,255,-5.22,4.23,-7.07,0.00,0.01,-0.01,-0.41,3.92,-9.02,-0.00,0.02,0.00,0.16,6.79,-7.02,-0.03,0.01,0.01,0.84,-0.02,-9.78,-0.01,0.02,0.00,1.18,4.59,-8.35,0.00,0.02,-0.01,0.95,-0.27,0.01,0.79,-0.12,0.12,R
16.905,0,255,255,0,255,-5.22,4.20,-7.02,0.00,0.01,-0.00,-0.40,3.89,-9.00,-0.01,0.02,-0.00,0.16,6.79,-7.04,-0.03,0.01,0.00,0.83,0.01,-9.81,-0.01,0.02,0.00,1.24,4.59,-8.35,0.00,0.02,-0.01,0.95,-0.27,0.01,0.67,-0.12,0.18,R
16.956,0,255,255,0,255,-5.22,4.26,-7.11,0.00,0.01,-0.00,-0.43,3.85,-9.00,-0.01,0.03,0.00,0.12,6.82,-7.03,-0.03,0.00,0.00,0.88,0.02,-9.82,-0.01,0.02,0.00,1.16,4.66,-8.38,0.01,0.02,-0.01,0.95,-0.27,0.01,0.67,-0.12,0.06,R
17.007,0,255,255,0,255,-5.23,4.22,-7.10,0.00,0.01,-0.00,-0.40,3.90,-9.00,-0.01,0.03,0.00,0.13,6.78,-7.02,-0.03,0.01,0.00,0.86,0.04,-9.81,0.00,0.02,-0.00,1.17,4.62,-8.34,0.00,0.02,-0.01,0.95,-0.27,0.01,0.67,-0.06,0.06,R
17.056,0,255,255,0,255,-5.12,4.21,-7.09,0.00,0.01,-0.01,-0.44,3.84,-9.05,-0.01,0.02,0.01,0.16,6.79,-7.03,-0.03,0.01,0.01,0.82,0.04,-9.83,-0.00,0.02,0.00,1.23,4.54,-8.37,0.00,0.02,-0.01,0.95,-0.27,0.01,0.73,-0.06,0.12,R
17.109,0,255,255,0,255,-5.20,4.19,-7.06,0.00,0.01,-0.00,-0.42,3.90,-8.99,-0.00,0.03,0.00,0.12,6.76,-7.04,-0.03,0.01,0.00,0.89,0.01,-9.78,-0.01,0.02,0.00,1.15,4.60,-8.40,0.01,0.02,-0.01,0.95,-0.27,0.01,0.67,-0.12,0.00,R
17.159,0,255,255,0,255,-5.17,4.25,-7.04,0.01,0.01,-0.00,-0.43,3.86,-8.96,-0.01,0.02,0.01,0.10,6.77,-7.07,-0.03,0.01,-0.00,0.81,-0.00,-9.82,-0.01,0.02,0.00,1.15,4.60,-8.34,0.01,0.02,-0.00,0.95,-0.28,0.01,0.67,-0.12,0.00,R
17.209,0,255,255,0,255,-5.21,4.18,-7.06,0.00,0.01,-0.01,-0.44,3.84,-9.03,-0.02,0.02,0.00,0.10,6.79,-7.01,-0.03,0.00,0.01,0.83,0.00,-9.78,-0.01,0.02,-0.00,1.18,4.60,-8.40,0.01,0.02,-0.01,0.95,-0.27,0.01,0.73,-0.12,0.06,R
17.26,0,255,255,255,255,-5.22,4.18,-7.03,0.01,0.01,-0.01,-0.35,3.85,-9.00,-0.01,0.02,0.00,0.08,6.81,-7.04,-0.03,0.00,0.00,0.86,0.01,-9.75,0.00,0.02,-0.00,1.23,4.55,-8.35,0.01,0.02,-0.01,0.95,-0.27,0.01,0.73,-0.18,0.06,R
17.312,0,255,255,255,255,-5.20,4.15,-7.08,0.01,0.01,-0.01,-0.39,3.83,-9.03,-0.01,0.02,0.00,0.09,6.81,-6.98,-0.03,0.01,0.00,0.86,0.01,-9.80,-0.01,0.02,0.00,1.13,4.62,-8.36,0.00,0.01,-0.01,0.95,-0.27,0.01,0.73,-0.06,0.06,R
17.364,0,255,255,0,255,-5.20,4.17,-7.03,0.00,0.01,-0.00,-0.42,3.91,-9.00,0.00,0.02,0.01,0.11,6.82,-7.04,-0.03,0.00,0.00,0.86,0.05,-9.79,-0.01,0.01,-0.00,1.21,4.63,-8.31,0.00,0.02,-0.01,0.95,-0.27,0.01,0.67,0.00,0.06,R
17.413,0,255,255,0,255,-5.24,4.22,-7.12,0.01,0.01,0.00,-0.43,3.89,-8.99,0.00,0.02,0.00,0.12,6.77,-7.05,-0.02,0.00,0.00,0.87,0.01,-9.80,-0.01,0.02,0.00,1.17,4.60,-8.36,0.01,0.02,-0.01,0.95,-0.27,0.01,0.73,0.00,0.06,R
17.464,0,255,255,0,255,-5.20,4.25,-7.10,0.00,0.01,-0.01,-0.40,3.89,-9.01,-0.01,0.02,0.00,0.15,6.78,-7.03,-0.03,0.00,0.00,0.86,-0.00,-9.81,-0.01,0.02,-0.01,1.26,4.61,-8.40,0.00,0.02,-0.01,0.95,-0.27,0.01,0.67,-0.12,0.06,R
17.518,0,255,0,0,255,-5.24,4.12,-7.08,0.01,0.01,-0.00,-0.41,3.83,-9.00,-0.01,0.02,-0.00,0.12,6.76,-7.04,-0.03,0.01,0.01,0.91,0.02,-9.79,-0.00,0.02,-0.00,1.18,4.66,-8.36,0.00,0.01,-0.01,0.95,-0.27,0.01,0.67,-0.06,0.06,R
17.569,0,255,0,255,255,-5.19,4.18,-7.02,-0.00,0.02,0.00,-0.38,3.89,-9.00,-0.00,0.03,0.00,0.20,6.78,-7.07,-0.01,0.00,0.00,0.87,0.00,-9.77,-0.01,0.02,0.00,1.18,4.64,-8.32,0.01,0.02,-0.01,0.95,-0.27,0.01,0.67,-0.06,-0.06,R
17.62,0,255,255,255,255,-5.19,4.14,-7.08,0.00,0.01,-0.00,-0.41,3.90,-8.95,-0.02,0.02,0.00,0.17,6.72,-6.99,-0.03,0.01,0.00,0.88,0.02,-9.77,-0.01,0.01,0.00,1.22,4.60,-8.37,0.00,0.02,-0.01,0.95,-0.28,0.01,0.67,0.06,0.12,R
17.668,0,255,255,0,255,-5.17,4.16,-7.07,0.00,0.01,0.00,-0.41,3.86,-9.01,-0.01,0.02,0.00,0.11,6.79,-7.05,-0.03,0.00,-0.00,0.86,0.00,-9.80,-0.01,0.01,-0.00,1.20,4.67,-8.34,0.01,0.02,-0.01,0.95,-0.27,0.01,0.67,-0.12,0.12,R
17.721,0,255,255,255,255,-5.19,4.15,-7.05,0.01,0.01,-0.00,-0.42,3.89,-8.98,-0.01,0.02,0.00,0.11,6.77,-7.02,-0.02,0.00,0.01,0.84,-0.01,-9.80,-0.01,0.02,-0.01,1.15,4.59,-8.34,0.00,0.02,-0.01,0.95,-0.27,0.01,0.67,-0.12,0.00,R
17.772,0,255,255,0,255,-5.23,4.19,-7.04,0.00,0.01,-0.01,-0.38,3.89,-9.01,-0.02,0.03,0.00,0.11,6.79,-7.07,-0.03,0.00,0.00,0.85,0.03,-9.78,-0.01,0.02,0.00,1.27,4.59,-8.34,0.00,0.02,-0.01,0.95,-0.27,0.01,0.73,-0.12,0.12,R
17.822,0,255,255,0,255,-5.24,4.13,-7.05,0.00,0.01,-0.01,-0.34,3.91,-9.00,-0.01,0.03,-0.00,0.11,6.81,-7.06,-0.03,0.01,0.00,0.80,0.01,-9.73,-0.01,0.02,0.00,1.14,4.60,-8.38,0.01,0.02,-0.01,0.95,-0.27,0.01,0.67,-0.12,0.06,R
17.873,0,255,0,0,255,-5.21,4.17,-7.07,0.00,0.01,-0.00,-0.44,3.89,-8.99,-0.01,0.02,0.00,0.11,6.76,-7.03,-0.02,0.01,0.01,0.85,0.01,-9.76,-0.01,0.01,-0.00,1.19,4.65,-8.33,0.00,0.02,-0.01,0.95,-0.27,0.01,0.73,-0.12,0.00,R
17.924,0,255,255,0,255,-5.22,4.26,-7.12,-0.00,0.01,-0.00,-0.42,3.86,-9.02,-0.00,0.03,0.01,0.09,6.77,-7.05,-0.03,0.01,-0.00,0.85,0.02,-9.77,-0.01,0.02,-0.00,1.19,4.62,-8.35,0.01,0.02,-0.00,0.95,-0.28,0.01,0.67,0.00,0.00,R
17.975,0,255,0,255,255,-5.20,4.11,-6.99,0.00,0.01,-0.00,-0.38,3.86,-8.99,-0.00,0.03,0.00,0.10,6.78,-7.07,-0.02,0.01,0.01,0.83,0.03,-9.79,-0.00,0.02,0.00,1.17,4.63,-8.35,0.01,0.02,-0.01,0.95,-0.27,0.01,0.67,-0.12,0.12,R
18.025,0,255,255,255,255,-5.25,4.21,-7.09,0.00,0.01,-0.00,-0.44,3.85,-8.98,-0.01,0.03,0.00,0.12,6.78,-7.06,-0.03,0.01,-0.00,0.81,0.05,-9.73,-0.01,0.02,-0.00,1.15,4.55,-8.34,0.01,0.02,-0.01,0.95,-0.27,0.01,0.67,-0.06,0.12,R
18.076,0,255,255,0,255,-5.23,4.20,-7.05,0.00,0.01,-0.00,-0.42,3.83,-9.01,-0.01,0.02,0.00,0.20,6.82,-7.05,-0.04,0.01,0.00,0.87,0.01,-9.79,-0.01,0.01,-0.00,1.17,4.60,-8.37,0.00,0.02,-0.01,0.95,-0.27,0.01,0.73,-0.06,0.12,R
18.13,0,255,255,0,255,-5.20,4.23,-7.08,0.00,0.01,-0.00,-0.43,3.90,-9.00,0.00,0.03,0.00,0.14,6.77,-7.03,-0.02,0.01,0.01,0.88,-0.01,-9.83,-0.01,0.02,-0.00,1.17,4.64,-8.39,0.00,0.02,-0.00,0.95,-0.27,0.01,0.67,-0.06,0.06,R
18.178,0,255,255,255,255,-5.22,4.19,-7.08,0.00,0.01,-0.00,-0.40,3.90,-9.05,-0.01,0.03,0.00,0.10,6.80,-7.02,-0.02,0.01,0.00,0.88,0.02,-9.72,-0.00,0.01,0.00,1.17,4.63,-8.37,0.00,0.02,-0.01,0.95,-0.27,0.01,0.67,-0.06,0.00,R
18.231,0,255,255,255,255,-5.16,4.14,-7.07,-0.00,0.01,-0.01,-0.38,3.88,-8.97,-0.01,0.02,0.00,0.16,6.79,-7.10,-0.04,0.01,0.00,0.89,0.02,-9.75,-0.00,0.01,-0.00,1.13,4.65,-8.36,0.00,0.02,-0.01,0.95,-0.27,0.01,0.67,-0.06,0.12,R
18.28,0,255,255,0,255,-5.12,4.19,-7.06,0.00,0.01,-0.00,-0.40,3.88,-8.99,-0.01,0.02,0.00,0.14,6.82,-7.05,-0.02,0.00,0.00,0.88,-0.02,-9.75,-0.01,0.01,-0.00,1.14,4.59,-8.33,0.01,0.02,-0.01,0.95,-0.27,0.01,0.67,-0.12,0.00,R
18.334,0,255,255,0,255,-5.18,4.21,-7.06,0.00,0.01,-0.00,-0.40,3.87,-9.05,-0.01,0.03,0.00,0.10,6.83,-7.05,-0.03,0.00,0.01,0.86,0.05,-9.76,-0.01,0.02,0.00,1.19,4.58,-8.36,0.00,0.02,-0.01,0.95,-0.27,0.01,0.67,-0.06,0.12,R
18.384,0,255,255,0,255,-5.21,4.20,-7.06,0.00,0.01,-0.00,-0.38,3.87,-9.01,0.00,0.02,0.01,0.14,6.79,-7.04,-0.03,0.01,0.00,0.88,0.03,-9.79,-0.01,0.02,-0.00,1.21,4.65,-8.34,0.01,0.02,-0.01,0.95,-0.27,0.01,0.67,-0.12,0.12,R
18.435,0,255,255,0,255,-5.18,4.15,-7.08,0.00,0.02,-0.01,-0.39,3.88,-9.00,-0.01,0.03,0.00,0.11,6.78,-7.04,-0.02,0.01,0.01,0.81,-0.04,-9.80,-0.00,0.01,0.00,1.18,4.57,-8.37,0.01,0.02,-0.01,0.95,-0.27,0.01,0.67,-0.06,0.12,R
18.486,0,255,255,255,255,-5.21,4.20,-7.03,0.00,0.02,-0.00,-0.48,3.85,-8.98,-0.01,0.02,0.01,0.11,6.76,-7.01,-0.04,0.01,0.00,0.82,0.02,-9.84,-0.01,0.01,-0.00,1.16,4.62,-8.40,0.01,0.02,-0.01,0.95,-0.27,0.01,0.61,-0.06,0.12,R
18.538,0,255,255,0,255,-5.19,4.19,-7.07,0.01,0.01,-0.00,-0.45,3.82,-9.02,0.00,0.02,0.00,0.14,6.74,-7.08,-0.02,0.00,0.00,0.86,0.02,-9.84,-0.00,0.02,0.00,1.22,4.61,-8.38,0.00,0.02,-0.00,0.95,-0.27,0.01,0.67,-0.12,0.06,R
18.589,0,255,255,255,255,-5.24,4.18,-7.09,-0.00,0.01,-0.01,-0.40,3.90,-9.01,-0.01,0.02,0.01,0.11,6.78,-7.08,-0.03,0.01,0.01,0.85,-0.04,-9.76,-0.01,0.02,0.00,1.15,4.58,-8.39,0.01,0.02,-0.01,0.95,-0.27,0.01,0.67,-0.06,0.06,R
18.639,0,255,255,0,255,-5.22,4.11,-7.05,0.00,0.01,-0.01,-0.46,3.82,-9.05,-0.01,0.02,0.00,0.09,6.72,-7.02,-0.03,0.00,0.00,0.84,0.01,-9.78,-0.01,0.02,-0.00,1.14,4.59,-8.39,0.00,0.02,-0.01,0.95,-0.27,0.01,0.73,0.00,0.06,R
18.69,0,255,255,0,255,-5.23,4.24,-7.09,0.00,0.01,-0.00,-0.40,3.88,-8.98,-0.01,0.03,0.01,0.13,6.81,-7.05,-0.03,-0.00,0.00,0.89,0.07,-9.80,-0.00,0.01,0.00,1.14,4.60,-8.33,0.00,0.02,-0.01,0.95,-0.27,0.01,0.73,-0.06,0.12,R
18.739,0,255,255,0,255,-5.19,4.16,-7.02,0.00,0.01,-0.00,-0.38,3.82,-9.02,-0.00,0.03,0.00,0.14,6.82,-7.08,-0.02,0.01,0.00,0.91,0.02,-9.79,-0.01,0.02,0.01,1.24,4.61,-8.36,0.00,0.02,-0.01,0.95,-0.27,0.01,0.73,-0.06,0.12,R
18.792,0,255,255,0,255,-5.19,4.20,-7.07,0.00,0.01,-0.01,-0.47,3.82,-9.04,-0.00,0.03,0.00,0.11,6.80,-7.07,-0.03,0.00,0.00,0.82,0.04,-9.83,-0.00,0.02,-0.00,1.15,4.61,-8.30,0.00,0.02,-0.01,0.95,-0.27,0.01,0.73,-0.06,0.00,R
18.842,0,255,255,0,255,-5.19,4.16,-7.11,0.01,0.01,-0.01,-0.39,3.86,-9.02,-0.01,0.03,0.00,0.14,6.78,-7.03,-0.03,0.01,0.00,0.90,0.06,-9.76,0.00,0.02,0.00,1.18,4.58,-8.37,0.01,0.02,-0.01,0.95,-0.28,0.01,0.73,-0.12,0.12,R
18.894,0,255,255,255,255,-5.22,4.13,-7.05,0.00,0.01,0.00,-0.43,3.85,-9.05,-0.01,0.03,0.00,0.16,6.81,-7.05,-0.03,0.00,-0.00,0.88,0.03,-9.74,-0.01,0.02,-0.00,1.20,4.62,-8.36,0.00,0.02,-0.01,0.95,-0.27,0.01,0.67,-0.06,0.00,R
18.943,0,255,0,255,255,-5.20,4.17,-7.08,-0.00,0.01,-0.00,-0.40,3.88,-9.03,-0.01,0.02,0.00,0.18,6.83,-7.05,-0.02,0.00,0.00,0.89,0.05,-9.80,-0.01,0.02,-0.00,1.20,4.61,-8.40,0.00,0.02,-0.01,0.95,-0.28,0.01,0.67,-0.06,0.06,R
18.996,0,255,255,255,255,-5.18,4.21,-7.09,0.01,0.02,-0.00,-0.45,3.84,-8.95,-0.01,0.02,0.00,0.13,6.81,-7.02,-0.02,0.01,0.00,0.85,0.00,-9.81,-0.00,0.02,0.00,1.17,4.66,-8.39,0.00,0.02,-0.01,0.95,-0.27,0.01,0.67,-0.12,0.00,R
19.048,0,255,255,0,255,-5.26,4.16,-7.04,0.00,0.01,-0.01,-0.43,3.89,-9.00,-0.01,0.02,0.00,0.15,6.80,-7.03,-0.03,0.01,-0.00,0.79,0.03,-9.79,-0.00,0.02,0.00,1.13,4.60,-8.29,0.00,0.02,-0.01,0.95,-0.27,0.01,0.67,-0.06,0.06,R
19.099,0,255,255,0,255,-5.20,4.17,-7.09,-0.00,0.02,-0.01,-0.42,3.89,-9.04,-0.01,0.03,0.00,0.14,6.75,-7.02,-0.03,0.01,0.00,0.88,0.03,-9.83,-0.00,0.01,-0.00,1.17,4.63,-8.37,0.00,0.02,-0.01,0.95,-0.27,0.01,0.73,-0.12,0.00,R
19.148,0,255,255,0,255,-5.22,4.16,-7.07,0.00,0.01,-0.00,-0.37,3.87,-8.96,-0.01,0.02,0.00,0.13,6.78,-7.02,-0.02,0.01,0.00,0.87,0.09,-9.74,-0.00,0.01,0.00,1.16,4.63,-8.33,0.01,0.02,-0.01,0.95,-0.27,0.01,0.67,-0.06,0.00,R
19.201,0,255,255,0,255,-5.21,4.18,-7.06,0.00,0.01,-0.00,-0.38,3.90,-9.01,-0.01,0.02,0.00,0.14,6.78,-7.03,-0.03,0.01,0.01,0.83,0.03,-9.72,-0.01,0.01,0.00,1.18,4.64,-8.35,0.00,0.02,-0.01,0.95,-0.27,0.01,0.73,-0.12,0.06,R
19.251,0,255,255,0,255,-5.26,4.22,-7.03,0.00,0.02,-0.00,-0.37,3.89,-9.00,-0.01,0.03,0.00,0.16,6.77,-7.07,-0.03,0.01,0.00,0.82,-0.01,-9.78,0.00,0.01,-0.00,1.21,4.61,-8.35,0.00,0.02,-0.01,0.95,-0.27,0.01,0.73,-0.12,0.06,R
19.305,0,255,0,0,255,-5.20,4.19,-7.07,-0.00,0.01,-0.01,-0.41,3.88,-8.94,-0.01,0.03,0.00,0.11,6.81,-7.00,-0.03,0.00,-0.00,0.86,0.08,-9.83,-0.00,0.01,-0.00,1.24,4.59,-8.34,0.00,0.02,-0.01,0.95,-0.27,0.01,0.73,-0.06,0.06,R
19.351,0,255,255,0,255,-5.17,4.21,-7.05,0.00,0.01,-0.01,-0.38,3.89,-9.02,-0.01,0.03,0.00,0.08,6.77,-7.05,-0.02,0.00,0.01,0.85,0.02,-9.80,-0.01,0.02,-0.00,1.15,4.57,-8.34,0.01,0.02,-0.01,0.95,-0.27,0.01,0.61,-0.06,0.00,R
19.405,0,255,255,255,255,-5.23,4.21,-7.05,0.00,0.01,-0.00,-0.36,3.87,-9.02,-0.01,0.03,0.00,0.11,6.83,-7.03,-0.04,0.00,0.01,0.86,0.04,-9.79,-0.01,0.02,-0.00,1.18,4.60,-8.37,0.00,0.02,-0.01,0.95,-0.27,0.01,0.61,-0.06,0.00,R
19.455,255,255,0,0,255,-5.19,4.20,-7.09,0.00,0.01,-0.00,-0.38,3.88,-9.04,0.00,0.02,0.00,0.14,6.75,-7.03,-0.03,0.01,0.00,0.86,0.00,-9.84,-0.01,0.02,-0.00,1.17,4.61,-8.32,0.00,0.02,-0.01,0.95,-0.27,0.01,0.73,-0.06,0.12,R
19.505,0,255,255,0,255,-5.19,4.16,-7.10,-0.00,0.01,-0.01,-0.35,3.85,-8.99,0.00,0.02,0.00,0.19,6.79,-7.00,-0.02,0.00,0.01,0.88,-0.05,-9.83,-0.00,0.02,-0.00,1.24,4.64,-8.37,0.01,0.02,-0.01,0.95,-0.27,0.01,0.67,-0.06,0.00,R
19.555,0,255,255,0,255,-5.20,4.20,-7.03,0.00,0.01,-0.00,-0.42,3.89,-9.01,-0.01,0.02,0.01,0.10,6.79,-7.08,-0.03,0.00,0.01,0.88,0.00,-9.80,-0.01,0.01,-0.00,1.16,4.60,-8.34,0.00,0.01,-0.01,0.95,-0.27,0.01,0.67,0.00,0.12,R
19.607,0,255,255,255,255,-5.22,4.15,-7.09,0.00,0.01,-0.00,-0.40,3.84,-8.96,-0.01,0.03,0.00,0.14,6.77,-7.04,-0.02,0.01,0.00,0.86,0.09,-9.79,-0.00,0.02,-0.00,1.20,4.56,-8.34,0.00,0.02,-0.01,0.95,-0.27,0.01,0.67,-0.06,0.06,R
19.659,0,255,255,0,255,-5.24,4.22,-7.05,0.00,0.01,-0.00,-0.39,3.84,-9.03,-0.01,0.02,-0.00,0.10,6.79,-7.02,-0.03,0.00,0.00,0.88,-0.01,-9.78,-0.01,0.02,0.00,1.20,4.62,-8.32,0.01,0.02,-0.01,0.95,-0.27,0.01,0.67,-0.12,0.06,R
19.709,0,255,255,0,255,-5.21,4.27,-7.04,0.00,0.01,-0.01,-0.46,3.88,-9.03,-0.01,0.03,0.00,0.11,6.75,-7.06,-0.02,0.01,0.01,0.82,-0.03,-9.78,-0.00,0.02,-0.00,1.20,4.59,-8.35,0.01,0.02,-0.01,0.95,-0.27,0.01,0.73,-0.12,0.06,R
19.761,0,255,255,0,255,-5.22,4.17,-7.07,0.01,0.01,-0.00,-0.45,3.85,-9.04,-0.01,0.03,0.00,0.18,6.81,-7.06,-0.03,0.01,-0.00,0.81,0.02,-9.80,-0.00,0.02,0.00,1.22,4.62,-8.37,0.01,0.02,-0.01,0.95,-0.27,0.01,0.67,-0.12,0.00,R
19.81,0,255,255,0,255,-5.26,4.19,-7.12,0.00,0.01,-0.01,-0.44,3.91,-9.01,-0.02,0.02,0.00,0.08,6.73,-7.00,-0.03,0.00,0.00,0.80,-0.01,-9.74,-0.01,0.02,-0.00,1.18,4.62,-8.34,0.01,0.02,-0.01,0.95,-0.27,0.01,0.61,0.06,0.00,R
19.861,0,255,255,0,255,-5.24,4.16,-7.12,0.00,0.00,-0.01,-0.40,3.90,-8.97,-0.01,0.02,0.00,0.13,6.81,-7.04,-0.03,0.00,0.00,0.89,0.02,-9.80,-0.01,0.02,-0.00,1.20,4.58,-8.36,0.00,0.02,-0.00,0.95,-0.27,0.01,0.73,-0.18,0.12,R
19.913,0,255,255,255,255,-5.21,4.19,-7.07,0.00,0.01,-0.01,-0.46,3.88,-8.97,-0.01,0.03,0.00,0.11,6.80,-7.09,-0.03,0.01,-0.00,0.79,0.03,-9.79,-0.01,0.02,0.00,1.16,4.61,-8.39,0.00,0.02,-0.00,0.95,-0.27,0.01,0.67,-0.12,0.06,R
19.964,0,255,255,0,255,-5.25,4.19,-7.08,0.00,0.01,-0.00,-0.39,3.85,-8.99,-0.00,0.02,0.00,0.11,6.79,-7.02,-0.02,0.01,0.01,0.84,0.00,-9.73,-0.00,0.02,0.00,1.14,4.60,-8.33,0.01,0.02,-0.01,0.95,-0.28,0.01,0.67,-0.06,0.06,R
20.014,0,255,255,0,255,-5.20,4.22,-7.04,0.00,0.01,-0.01,-0.42,3.83,-9.03,-0.01,0.02,-0.00,0.15,6.75,-7.06,-0.03,0.00,0.00,0.83,-0.00,-9.76,-0.00,0.02,-0.00,1.21,4.62,-8.33,0.01,0.02,-0.01,0.95,-0.27,0.01,0.79,-0.06,0.12,R
20.066,0,255,255,0,255,-5.18,4.20,-7.05,0.01,0.02,-0.00,-0.40,3.86,-9.01,0.00,0.03,0.00,0.16,6.77,-7.04,-0.01,0.01,0.00,0.80,-0.01,-9.83,-0.00,0.02,0.00,1.23,4.58,-8.39,0.00,0.02,-0.01,0.95,-0.27,0.01,0.73,-0.12,0.12,R
20.118,0,255,255,255,255,-5.16,4.18,-7.10,0.00,0.01,-0.00,-0.43,3.87,-9.02,-0.01,0.02,0.00,0.14,6.74,-7.03,-0.02,0.00,0.00,0.89,0.00,-9.82,-0.01,0.02,0.00,1.19,4.64,-8.36,0.01,0.02,-0.01,0.95,-0.27,0.01,0.73,-0.12,0.06,R
20.169,0,255,255,0,255,-5.21,4.17,-7.10,0.00,0.01,-0.00,-0.44,3.84,-8.97,-0.01,0.03,0.00,0.21,6.73,-7.05,-0.03,0.00,0.01,0.88,-0.00,-9.82,-0.01,0.02,0.00,1.21,4.55,-8.39,0.00,0.02,-0.01,0.95,-0.27,0.01,0.67,0.00,0.12,R
20.22,0,255,255,0,255,-5.23,4.17,-7.03,0.00,0.01,-0.01,-0.43,3.87,-8.99,-0.01,0.02,0.00,0.15,6.74,-7.09,-0.03,0.01,0.00,0.88,-0.01,-9.83,-0.00,0.02,-0.00,1.13,4.63,-8.29,0.01,0.02,-0.01,0.95,-0.27,0.01,0.67,-0.06,0.06,R
20.269,0,255,255,0,255,-5.19,4.12,-7.07,0.01,0.01,-0.00,-0.45,3.85,-8.97,-0.01,0.03,0.01,0.12,6.80,-7.09,-0.02,0.01,0.01,0.89,0.03,-9.73,-0.01,0.01,0.00,1.21,4.63,-8.38,0.01,0.02,-0.00,0.95,-0.27,0.01,0.73,-0.06,0.12,R
20.321,0,255,255,255,255,-5.26,4.16,-7.04,-0.00,0.02,-0.00,-0.43,3.91,-8.98,-0.01,0.03,0.00,0.12,6.80,-7.04,-0.03,0.00,-0.00,0.85,0.04,-9.81,-0.00,0.02,0.00,1.21,4.63,-8.31,0.01,0.03,-0.01,0.95,-0.27,0.01,0.67,-0.06,0.06,R
20.374,0,255,255,255,255,-5.20,4.16,-7.05,0.00,0.01,-0.00,-0.39,3.85,-9.01,-0.00,0.03,0.00,0.18,6.77,-7.01,-0.03,0.01,0.00,0.77,0.02,-9.77,-0.01,0.02,-0.00,1.20,4.64,-8.37,0.01,0.02,-0.01,0.95,-0.27,0.01,0.67,-0.06,0.18,R
20.422,0,255,0,0,255,-5.29,4.19,-7.06,0.00,0.01,-0.00,-0.39,3.85,-9.01,-0.01,0.02,0.00,0.11,6.80,-7.04,-0.03,0.00,0.01,0.78,-0.01,-9.72,-0.00,0.02,0.00,1.13,4.57,-8.36,0.00,0.02,-0.01,0.95,-0.27,0.01,0.61,-0.06,0.00,R
20.473,0,255,255,255,255,-5.23,4.17,-7.13,0.00,0.01,-0.01,-0.42,3.87,-9.02,-0.01,0.03,0.00,0.08,6.78,-7.06,-0.03,0.01,0.00,0.84,0.00,-9.83,-0.01,0.01,0.00,1.19,4.54,-8.35,0.00,0.02,-0.01,0.95,-0.27,0.01,0.73,-0.12,0.12,R
20.524,0,255,255,0,255,-5.22,4.19,-7.02,0.01,0.01,-0.01,-0.42,3.91,-9.04,-0.01,0.02,-0.00,0.16,6.79,-7.02,-0.02,0.01,0.00,0.89,0.02,-9.79,-0.01,0.02,-0.00,1.15,4.60,-8.36,0.00,0.02,-0.00,0.95,-0.27,0.01,0.67,-0.06,0.12,R
20.575,0,255,255,0,255,-5.22,4.18,-7.14,-0.00,0.01,-0.00,-0.38,3.95,-9.02,-0.01,0.02,0.00,0.08,6.81,-7.05,-0.02,0.01,0.00,0.88,0.01,-9.75,-0.00,0.02,0.00,1.13,4.66,-8.36,0.00,0.02,-0.01,0.95,-0.27,0.01,0.67,-0.12,0.00,R
20.628,0,255,255,255,255,-5.27,4.15,-7.10,0.00,0.01,-0.01,-0.36,3.89,-9.00,-0.01,0.03,0.00,0.14,6.80,-7.04,-0.02,0.01,0.01,0.85,0.01,-9.77,-0.01,0.01,0.00,1.18,4.61,-8.36,0.01,0.02,-0.01,0.95,-0.27,0.01,0.73,-0.12,0.06,R
20.68,0,255,255,0,255,-5.26,4.15,-7.09,0.00,0.01,0.00,-0.39,3.85,-9.05,-0.01,0.03,0.00,0.10,6.76,-7.00,-0.03,0.01,0.00,0.85,0.01,-9.76,-0.01,0.01,-0.00,1.20,4.65,-8.41,0.00,0.02,-0.01,0.95,-0.27,0.01,0.67,-0.06,0.06,R
20.729,0,255,255,0,255,-5.23,4.18,-7.07,0.00,0.01,-0.01,-0.36,3.85,-9.05,-0.01,0.03,0.00,0.10,6.82,-7.01,-0.03,0.01,0.01,0.88,0.04,-9.80,-0.01,0.01,0.00,1.17,4.57,-8.35,0.00,0.02,-0.01,0.95,-0.27,0.01,0.67,-0.06,0.06,R
20.78,0,255,255,0,255,-5.19,4.22,-7.12,0.00,0.01,-0.00,-0.45,3.86,-9.03,-0.01,0.03,0.00,0.11,6.78,-7.06,-0.03,0.01,0.00,0.86,0.06,-9.82,-0.00,0.01,0.00,1.14,4.59,-8.33,0.00,0.02,-0.01,0.95,-0.27,0.01,0.73,-0.12,0.06,R
20.83,0,255,255,0,255,-5.22,4.17,-7.08,0.00,0.02,-0.00,-0.38,3.87,-8.99,-0.00,0.03,0.00,0.10,6.79,-7.06,-0.02,0.01,0.00,0.85,0.03,-9.76,-0.01,0.02,0.00,1.17,4.65,-8.35,0.00,0.02,-0.01,0.95,-0.27,0.01,0.67,-0.12,0.00,R
20.882,0,255,255,0,255,-5.20,4.18,-7.08,0.01,0.01,-0.00,-0.43,3.84,-9.03,-0.01,0.03,-0.00,0.15,6.79,-7.05,-0.03,0.01,-0.00,0.80,0.01,-9.81,-0.01,0.02,-0.00,1.21,4.62,-8.38,0.00,0.02,-0.01,0.95,-0.27,0.01,0.73,-0.12,-0.06,R
20.933,0,255,255,0,255,-5.18,4.19,-7.05,0.00,0.01,-0.01,-0.39,3.86,-9.03,-0.01,0.02,0.00,0.13,6.73,-7.08,-0.04,0.01,-0.00,0.85,-0.02,-9.81,-0.01,0.02,0.00,1.19,4.60,-8.31,0.01,0.02,-0.01,0.95,-0.27,0.01,0.73,-0.06,0.06,R
20.985,0,255,255,0,255,-5.20,4.21,-7.08,0.01,0.01,-0.01,-0.41,3.90,-9.02,0.00,0.03,0.00,0.13,6.80,-7.07,-0.02,0.00,0.01,0.88,0.01,-9.76,-0.01,0.01,-0.00,1.20,4.59,-8.36,0.01,0.02,-0.01,0.95,-0.27,0.01,0.67,-0.18,0.06,R
21.036,0,255,255,0,255,-5.25,4.17,-7.08,0.01,0.01,-0.00,-0.41,3.94,-9.08,-0.01,0.02,0.00,0.14,6.78,-7.05,-0.03,0.01,0.01,0.80,-0.03,-9.80,-0.00,0.02,-0.01,1.13,4.59,-8.37,0.01,0.02,-0.01,0.95,-0.27,0.01,0.67,-0.06,0.00,R
21.088,0,255,255,0,255,-5.24,4.15,-7.11,0.00,0.01,-0.00,-0.41,3.95,-9.01,-0.01,0.03,-0.00,0.09,6.78,-7.04,-0.03,0.01,0.00,0.91,0.08,-9.73,-0.00,0.02,-0.00,1.22,4.63,-8.39,0.01,0.02,-0.00,0.95,-0.27,0.01,0.73,0.00,0.06,R
21.138,0,255,255,0,255,-5.22,4.16,-7.11,0.01,0.01,-0.01,-0.45,3.86,-9.01,-0.00,0.02,0.00,0.05,6.78,-7.06,-0.02,0.00,0.00,0.88,0.05,-9.83,-0.00,0.02,0.00,1.24,4.67,-8.35,0.01,0.02,-0.01,0.95,-0.27,0.01,0.67,-0.12,0.06,R
21.189,0,255,255,0,255,-5.18,4.17,-7.06,0.00,0.01,-0.00,-0.45,3.86,-9.04,-0.01,0.02,0.00,0.11,6.77,-7.06,-0.02,0.00,0.00,0.81,0.01,-9.79,-0.01,0.02,0.00,1.15,4.64,-8.37,0.00,0.02,-0.01,0.95,-0.27,0.01,0.67,-0.12,0.12,R
21.24,0,255,255,255,255,-5.23,4.20,-7.03,0.01,0.01,-0.01,-0.41,3.84,-8.99,-0.01,0.02,0.00,0.11,6.81,-7.05,-0.03,0.01,0.00,0.89,0.04,-9.81,-0.01,0.02,-0.00,1.18,4.56,-8.33,0.00,0.02,-0.01,0.95,-0.27,0.01,0.67,-0.12,0.12,R
21.291,0,255,255,0,255,-5.20,4.16,-7.08,-0.00,0.01,-0.00,-0.41,3.87,-9.02,-0.01,0.02,-0.00,0.12,6.82,-7.05,-0.03,0.00,0.00,0.79,-0.01,-9.80,-0.00,0.02,-0.01,1.20,4.62,-8.40,0.00,0.02,-0.01,0.95,-0.27,0.01,0.67,-0.12,0.06,R
21.342,0,255,255,0,255,-5.24,4.23,-7.10,0.00,0.01,-0.01,-0.34,3.83,-9.03,-0.01,0.03,0.00,0.14,6.77,-7.06,-0.03,0.01,0.00,0.89,0.02,-9.78,-0.00,0.02,0.00,1.16,4.58,-8.33,0.00,0.02,-0.01,0.95,-0.28,0.01,0.73,-0.12,-0.06,R
21.391,0,255,255,0,255,-5.22,4.13,-7.02,0.00,0.01,-0.00,-0.45,3.88,-8.96,-0.02,0.02,0.00,0.11,6.84,-7.01,-0.03,0.01,0.00,0.87,0.02,-9.79,-0.01,0.01,-0.00,1.18,4.68,-8.36,0.01,0.02,-0.01,0.95,-0.27,0.01,0.67,-0.06,-0.06,R
21.444,0,255,255,0,255,-5.22,4.14,-7.07,0.00,0.01,-0.01,-0.37,3.89,-9.04,-0.01,0.03,0.00,0.13,6.80,-7.00,-0.04,-0.00,0.00,0.81,0.05,-9.76,-0.01,0.02,0.00,1.19,4.60,-8.39,0.00,0.02,-0.01,0.95,-0.27,0.01,0.67,-0.12,0.06,R
21.494,0,255,255,0,255,-5.29,4.20,-7.06,0.01,0.02,-0.01,-0.40,3.83,-9.04,0.00,0.03,0.01,0.14,6.75,-7.10,-0.01,0.00,0.00,0.86,-0.01,-9.80,-0.01,0.01,0.00,1.20,4.65,-8.35,0.01,0.02,-0.01,0.95,-0.28,0.01,0.67,-0.12,0.00,R
21.545,0,255,255,0,255,-5.20,4.18,-7.10,0.01,0.01,-0.01,-0.43,3.89,-9.03,-0.01,0.02,0.00,0.15,6.76,-7.03,-0.03,0.01,0.00,0.79,0.04,-9.80,-0.01,0.02,0.00,1.19,4.63,-8.42,0.00,0.02,-0.01,0.95,-0.27,0.01,0.67,-0.12,0.00,R
21.597,0,255,255,0,255,-5.18,4.18,-7.11,0.00,0.01,-0.00,-0.38,3.86,-9.03,-0.01,0.03,0.00,0.09,6.75,-7.07,-0.03,0.01,0.01,0.89,-0.00,-9.70,-0.01,0.02,-0.01,1.20,4.59,-8.35,0.00,0.02,-0.01,0.95,-0.27,0.01,0.73,0.00,0.12,R
21.647,0,255,255,255,255,-5.21,4.22,-7.09,0.00,0.01,-0.01,-0.42,3.88,-8.97,-0.01,0.02,-0.00,0.11,6.80,-7.03,-0.03,0.01,0.00,0.83,0.02,-9.80,-0.01,0.02,-0.00,1.20,4.56,-8.36,0.00,0.02,-0.01,0.95,-0.27,0.01,0.67,-0.12,0.06,R
21.697,0,255,255,255,255,-5.22,4.25,-7.09,0.01,0.01,-0.00,-0.44,3.81,-9.05,-0.01,0.03,0.00,0.12,6.80,-7.05,-0.03,0.00,0.00,0.89,0.00,-9.73,-0.01,0.02,-0.01,1.19,4.61,-8.35,0.00,0.02,-0.01,0.95,-0.27,0.01,0.73,-0.06,0.06,R
21.75,0,255,255,255,255,-5.23,4.14,-7.07,0.00,0.01,-0.00,-0.40,3.84,-9.03,-0.00,0.02,-0.00,0.06,6.79,-7.04,-0.03,0.01,0.01,0.87,0.01,-9.82,-0.01,0.02,0.00,1.19,4.65,-8.37,0.01,0.01,-0.01,0.95,-0.27,0.01,0.67,-0.12,0.00,R
21.801,0,255,0,0,255,-5.21,4.22,-7.10,0.01,0.01,0.00,-0.35,3.88,-9.03,-0.01,0.03,0.00,0.13,6.78,-7.07,-0.03,0.01,0.00,0.84,0.00,-9.77,-0.01,0.01,-0.00,1.21,4.62,-8.34,0.01,0.02,-0.01,0.95,-0.27,0.01,0.67,-0.06,0.06,R
21.852,0,255,255,0,255,-5.19,4.21,-7.10,0.00,0.01,0.00,-0.40,3.86,-9.01,-0.01,0.03,0.00,0.21,6.78,-7.03,-0.03,0.01,0.00,0.78,0.07,-9.74,-0.01,0.02,-0.00,1.19,4.61,-8.35,0.00,0.02,-0.01,0.95,-0.27,0.01,0.85,-0.06,0.00,R
21.903,0,255,255,0,255,-5.23,4.14,-7.04,0.00,0.01,0.00,-0.38,3.82,-9.05,-0.01,0.03,0.00,0.12,6.76,-7.05,-0.02,0.01,0.01,0.86,0.03,-9.74,-0.01,0.02,0.00,1.19,4.63,-8.38,0.01,0.02,-0.01,0.95,-0.27,0.01,0.73,-0.12,0.12,R
21.954,0,255,255,0,255,-5.21,4.21,-7.08,0.01,0.01,-0.01,-0.41,3.90,-8.97,-0.01,0.02,0.00,0.12,6.80,-7.09,-0.03,0.01,0.00,0.86,0.02,-9.80,-0.01,0.02,0.00,1.16,4.56,-8.35,0.00,0.02,-0.01,0.95,-0.27,0.01,0.61,-0.06,0.00,R
22.005,0,255,255,0,255,-5.20,4.18,-7.07,0.00,0.01,-0.00,-0.41,3.89,-8.98,-0.01,0.02,0.00,0.08,6.78,-7.06,-0.03,0.01,0.00,0.79,0.03,-9.71,-0.01,0.02,0.00,1.17,4.57,-8.38,0.01,0.02,-0.01,0.95,-0.27,0.01,0.67,-0.12,0.12,R
22.055,0,255,255,0,255,-5.25,4.18,-7.09,0.01,0.01,-0.00,-0.42,3.82,-9.01,0.00,0.02,0.01,0.12,6.77,-7.05,-0.02,0.01,0.00,0.88,-0.01,-9.74,-0.01,0.02,-0.01,1.22,4.59,-8.37,0.00,0.02,-0.01,0.95,-0.27,0.01,0.73,-0.06,0.06,R
22.108,0,255,255,0,255,-5.23,4.15,-7.06,0.00,0.01,-0.00,-0.43,3.95,-8.97,-0.02,0.02,0.01,0.12,6.75,-7.00,-0.03,0.01,-0.00,0.86,-0.02,-9.79,-0.01,0.01,0.00,1.19,4.62,-8.28,0.01,0.02,-0.01,0.95,-0.27,0.01,0.79,-0.06,0.06,R
22.159,0,255,255,0,255,-5.18,4.19,-7.09,0.01,0.01,-0.00,-0.41,3.90,-9.08,-0.01,0.02,0.00,0.07,6.72,-7.06,-0.04,0.01,0.00,0.87,0.01,-9.81,-0.01,0.02,-0.00,1.14,4.60,-8.38,0.01,0.02,-0.01,0.95,-0.27,0.01,0.67,0.00,0.18,R
22.207,0,255,255,0,255,-5.23,4.16,-7.05,0.01,0.02,-0.00,-0.40,3.82,-9.02,0.01,0.03,0.01,0.13,6.78,-7.03,-0.00,-0.00,0.00,0.86,0.03,-9.80,-0.00,0.02,-0.00,1.25,4.60,-8.34,0.01,0.02,-0.01,0.95,-0.28,0.01,0.61,-0.12,0.00,R
22.261,0,255,255,0,255,-5.17,4.21,-7.09,0.00,0.01,-0.01,-0.43,3.87,-9.04,-0.02,0.02,-0.00,0.12,6.81,-7.04,-0.04,0.01,-0.00,0.84,0.05,-9.79,-0.00,0.02,0.00,1.13,4.59,-8.35,0.01,0.02,-0.01,0.95,-0.27,0.01,0.73,0.00,0.12,R
22.311,0,255,255,0,255,-5.23,4.23,-7.07,0.01,0.01,-0.01,-0.40,3.86,-9.04,0.00,0.03,0.00,0.16,6.77,-7.07,-0.02,0.01,0.00,0.86,0.04,-9.79,-0.01,0.02,-0.00,1.18,4.66,-8.37,0.00,0.02,-0.00,0.95,-0.28,0.01,0.67,-0.06,0.00,R
22.363,0,255,0,255,255,-5.22,4.18,-7.07,0.00,0.01,-0.00,-0.36,3.89,-9.01,-0.02,0.02,-0.00,0.07,6.81,-7.01,-0.03,0.01,0.00,0.83,0.01,-9.81,-0.01,0.02,-0.00,1.17,4.61,-8.35,0.01,0.02,-0.01,0.95,-0.27,0.01,0.67,-0.12,0.06,R
22.413,255,255,255,0,255,-5.26,4.17,-7.07,-0.00,0.02,-0.01,-0.44,3.85,-8.99,-0.01,0.03,0.00,0.09,6.75,-7.09,-0.02,0.01,0.00,0.85,0.01,-9.76,-0.01,0.02,-0.00,1.18,4.56,-8.38,0.01,0.02,-0.00,0.95,-0.27,0.01,0.73,-0.06,0.12,R
22.466,0,255,255,0,255,-5.20,4.17,-7.08,0.00,0.01,-0.01,-0.44,3.88,-9.00,-0.01,0.02,0.00,0.07,6.77,-7.03,-0.03,0.01,0.00,0.82,-0.00,-9.81,-0.01,0.02,-0.00,1.14,4.60,-8.36,0.01,0.02,-0.01,0.95,-0.27,0.01,0.67,-0.06,0.12,R
22.515,0,255,255,0,255,-5.20,4.19,-7.07,0.00,0.01,-0.00,-0.44,3.89,-9.03,-0.01,0.02,0.00,0.08,6.74,-7.10,-0.02,0.01,0.00,0.84,0.05,-9.83,-0.00,0.01,0.00,1.21,4.60,-8.37,0.00,0.02,-0.01,0.95,-0.28,0.01,0.61,-0.12,0.12,R
22.567,0,255,255,0,255,-5.20,4.21,-7.10,0.00,0.01,-0.00,-0.38,3.87,-8.96,-0.02,0.03,0.00,0.12,6.77,-7.09,-0.03,0.01,0.00,0.84,0.07,-9.73,-0.00,0.02,-0.00,1.15,4.61,-8.35,0.00,0.02,-0.01,0.95,-0.27,0.01,0.67,-0.06,0.12,R
22.617,0,255,0,0,255,-5.20,4.17,-7.07,0.00,0.02,-0.00,-0.39,3.89,-9.02,0.00,0.03,0.00,0.12,6.74,-7.06,-0.02,0.00,0.00,0.86,0.03,-9.82,-0.00,0.02,-0.00,1.18,4.58,-8.35,0.00,0.02,-0.01,0.95,-0.28,0.01,0.73,-0.06,0.06,R
22.669,0,255,255,0,255,-5.30,4.13,-7.08,0.00,0.01,-0.01,-0.43,3.88,-9.02,-0.01,0.03,0.00,0.10,6.79,-7.01,-0.03,0.01,0.00,0.88,0.08,-9.80,-0.00,0.02,0.00,1.14,4.56,-8.37,0.01,0.02,-0.01,0.95,-0.27,0.01,0.73,-0.06,0.06,R
22.72,0,255,255,0,255,-5.14,4.20,-7.06,0.01,0.01,-0.01,-0.35,3.87,-9.03,-0.01,0.02,0.00,0.10,6.75,-7.08,-0.04,0.00,-0.00,0.83,0.03,-9.80,-0.00,0.02,-0.01,1.13,4.62,-8.38,0.00,0.03,-0.01,0.95,-0.27,0.01,0.73,0.00,0.18,R
22.77,0,255,0,0,255,-5.23,4.19,-7.11,0.02,0.01,-0.01,-0.40,3.86,-9.01,0.03,0.02,0.01,0.13,6.80,-7.08,-0.01,0.01,0.01,0.86,0.04,-9.81,-0.00,0.01,0.00,1.17,4.59,-8.35,0.00,0.02,-0.01,0.95,-0.27,0.01,0.67,-0.24,0.00,R
22.819,0,255,255,0,255,-5.20,4.20,-7.06,-0.01,0.01,-0.00,-0.39,3.88,-8.95,-0.03,0.02,-0.00,0.14,6.76,-7.04,-0.02,0.01,0.00,0.84,0.01,-9.76,-0.00,0.01,0.00,1.18,4.62,-8.35,0.01,0.02,-0.01,0.95,-0.27,0.01,0.61,0.00,0.06,R
22.871,0,255,255,0,255,-5.21,4.18,-7.08,0.01,0.01,-0.00,-0.44,3.90,-9.01,-0.02,0.02,0.00,0.15,6.79,-7.05,-0.03,0.01,0.00,0.89,0.04,-9.80,-0.01,0.02,-0.00,1.20,4.59,-8.37,0.01,0.02,-0.01,0.95,-0.28,0.01,0.73,-0.06,0.06,R
22.921,0,255,255,0,255,-5.20,4.17,-7.05,-0.01,0.01,-0.00,-0.37,3.87,-9.04,-0.01,0.03,0.01,0.08,6.73,-7.02,-0.04,0.01,0.00,0.79,-0.05,-9.81,0.00,0.02,-0.01,1.15,4.62,-8.38,0.01,0.02,-0.01,0.95,-0.27,0.01,0.67,-0.12,0.06,R
22.975,0,255,255,0,255,-5.21,4.18,-7.05,0.00,0.01,-0.00,-0.38,3.85,-9.00,-0.01,0.02,0.00,0.15,6.81,-7.08,-0.02,0.01,0.00,0.80,0.03,-9.76,-0.00,0.02,0.00,1.23,4.64,-8.38,0.01,0.02,-0.01,0.95,-0.27,0.01,0.67,-0.06,0.00,R
23.027,0,255,255,0,255,-5.23,4.17,-7.07,-0.01,0.01,-0.01,-0.38,3.84,-9.06,-0.01,0.03,0.00,0.11,6.79,-7.02,-0.03,0.01,0.00,0.79,0.02,-9.76,-0.01,0.01,-0.00,1.14,4.57,-8.40,0.01,0.02,-0.01,0.95,-0.27,0.01,0.67,-0.06,0.06,R
23.074,0,255,0,0,255,-5.21,4.16,-7.06,0.00,0.01,-0.00,-0.42,3.87,-9.00,-0.01,0.02,0.00,0.09,6.80,-7.11,-0.04,0.01,0.00,0.86,-0.01,-9.77,-0.00,0.02,-0.00,1.21,4.61,-8.37,0.00,0.02,-0.01,0.95,-0.27,0.01,0.67,-0.06,0.06,R
23.129,0,255,255,255,255,-5.23,4.16,-7.09,0.00,0.01,-0.00,-0.41,3.93,-9.00,0.00,0.02,0.00,0.09,6.79,-7.08,-0.02,0.01,0.00,0.87,-0.03,-9.81,-0.00,0.02,-0.00,1.17,4.62,-8.36,0.00,0.02,-0.01,0.95,-0.28,0.01,0.73,-0.12,0.06,R
23.179,0,255,0,255,255,-5.18,4.15,-7.07,0.01,0.01,-0.00,-0.37,3.86,-8.98,-0.01,0.02,0.00,0.13,6.79,-7.05,-0.02,0.00,0.00,0.88,-0.03,-9.80,-0.01,0.01,-0.00,1.17,4.60,-8.42,0.01,0.02,-0.01,0.95,-0.27,0.01,0.67,-0.06,0.12,R
23.227,0,255,255,0,255,-5.19,4.16,-7.03,0.00,0.01,0.00,-0.40,3.87,-9.03,-0.01,0.03,0.00,0.16,6.79,-7.06,-0.03,0.01,0.00,0.84,0.06,-9.83,-0.01,0.02,-0.00,1.20,4.57,-8.35,0.00,0.02,-0.01,0.95,-0.27,0.01,0.73,-0.12,0.06,R
23.281,0,255,255,255,255,-5.24,4.17,-7.08,-0.00,0.01,-0.01,-0.42,3.86,-9.03,-0.02,0.03,0.00,0.17,6.74,-7.04,-0.03,0.01,0.00,0.86,0.01,-9.75,-0.00,0.01,0.00,1.13,4.57,-8.38,0.00,0.02,-0.01,0.95,-0.27,0.01,0.67,-0.06,0.00,R
23.332,0,255,255,0,255,-5.18,4.18,-7.13,0.01,0.01,-0.00,-0.41,3.81,-9.01,-0.02,0.02,0.00,0.12,6.74,-7.02,-0.03,0.01,0.00,0.79,-0.02,-9.81,-0.00,0.01,0.00,1.20,4.60,-8.35,0.01,0.02,-0.01,0.95,-0.27,0.01,0.67,-0.06,0.06,R
23.38,0,255,255,255,255,-5.23,4.19,-7.09,0.00,0.02,-0.00,-0.38,3.80,-9.05,-0.00,0.03,-0.00,0.12,6.76,-7.02,-0.02,0.01,0.00,0.86,0.03,-9.76,-0.00,0.02,0.00,1.22,4.59,-8.30,0.00,0.01,-0.01,0.95,-0.27,0.01,0.61,-0.06,0.06,R
23.431,0,255,255,255,255,-5.23,4.18,-7.02,0.00,0.01,-0.00,-0.39,3.83,-9.01,-0.01,0.02,0.00,0.14,6.76,-7.07,-0.03,0.01,0.00,0.83,-0.02,-9.76,-0.01,0.02,0.00,1.18,4.61,-8.33,0.00,0.02,-0.01,0.95,-0.27,0.01,0.67,-0.06,0.06,R
23.483,0,255,0,255,255,-5.24,4.19,-7.09,0.00,0.01,-0.00,-0.40,3.85,-9.00,-0.01,0.02,0.00,0.09,6.75,-7.05,-0.03,0.01,0.00,0.93,-0.01,-9.78,-0.01,0.02,-0.00,1.19,4.64,-8.37,0.01,0.02,-0.01,0.95,-0.27,0.01,0.67,-0.06,0.06,R
23.534,0,255,255,0,255,-5.22,4.18,-7.10,-0.00,0.01,-0.01,-0.42,3.77,-9.04,-0.01,0.02,-0.00,0.11,6.79,-7.12,-0.02,0.00,0.01,0.86,0.03,-9.83,-0.00,0.02,0.00,1.19,4.56,-8.32,0.01,0.02,-0.00,0.95,-0.27,0.01,0.73,-0.12,0.06,R
23.587,0,255,255,0,255,-5.25,4.20,-7.11,0.00,0.01,-0.00,-0.40,3.86,-8.99,0.00,0.03,0.01,0.17,6.77,-7.07,-0.03,0.00,0.00,0.90,-0.02,-9.73,-0.01,0.01,-0.00,1.13,4.61,-8.33,0.01,0.02,-0.01,0.95,-0.28,0.01,0.61,-0.06,0.00,R
23.635,0,255,255,255,255,-5.19,4.19,-7.04,0.00,0.01,-0.01,-0.36,3.86,-8.97,-0.01,0.02,0.00,0.12,6.81,-7.06,-0.03,0.00,0.00,0.83,0.00,-9.76,-0.01,0.01,-0.00,1.21,4.61,-8.32,0.00,0.02,-0.01,0.95,-0.27,0.01,0.67,0.00,0.12,R
23.687,0,255,0,0,255,-5.22,4.15,-7.10,0.01,0.01,-0.01,-0.39,3.91,-9.03,-0.01,0.03,0.00,0.13,6.79,-7.02,-0.03,0.00,0.00,0.85,0.01,-9.77,-0.01,0.02,0.00,1.17,4.56,-8.39,0.00,0.02,-0.01,0.95,-0.27,0.01,0.73,-0.06,0.06,R
23.74,0,255,255,0,255,-5.28,4.24,-7.05,-0.00,0.01,-0.00,-0.43,3.92,-9.05,-0.01,0.02,0.00,0.18,6.82,-7.03,-0.02,0.00,0.00,0.85,-0.01,-9.80,0.00,0.02,-0.00,1.17,4.68,-8.38,0.00,0.02,-0.01,0.95,-0.27,0.01,0.67,-0.12,-0.06,R
23.789,0,255,255,0,255,-5.23,4.15,-7.03,-0.01,0.01,-0.00,-0.37,3.84,-8.98,-0.02,0.03,0.00,0.15,6.81,-7.06,-0.04,0.01,-0.00,0.85,0.02,-9.83,-0.01,0.01,0.00,1.17,4.57,-8.36,0.01,0.02,-0.01,0.95,-0.27,0.01,0.73,-0.06,0.18,R
23.839,0,255,255,0,255,-5.19,4.18,-7.09,0.00,0.01,-0.01,-0.42,3.78,-9.02,-0.01,0.02,0.00,0.14,6.82,-7.06,-0.02,0.01,0.00,0.86,-0.04,-9.78,-0.01,0.02,-0.00,1.15,4.62,-8.28,0.00,0.02,-0.01,0.95,-0.27,0.01,0.61,-0.06,0.06,R
23.889,0,255,255,0,255,-5.25,4.22,-7.09,0.00,0.01,0.00,-0.41,3.87,-8.98,-0.00,0.02,0.01,0.12,6.75,-7.03,-0.02,0.01,0.00,0.79,-0.01,-9.81,-0.01,0.02,0.00,1.19,4.61,-8.36,0.01,0.02,-0.01,0.95,-0.27,0.01,0.67,-0.18,0.06,R
23.941,0,255,0,0,255,-5.26,4.20,-7.07,-0.00,0.01,-0.00,-0.40,3.89,-9.02,-0.01,0.02,0.00,0.14,6.81,-7.05,-0.03,0.01,0.00,0.87,0.02,-9.75,-0.01,0.02,-0.00,1.18,4.62,-8.35,0.01,0.02,-0.01,0.95,-0.27,0.01,0.73,-0.06,0.06,R
23.993,0,255,0,0,255,-5.16,4.16,-7.03,0.00,0.02,-0.01,-0.44,3.86,-9.05,-0.01,0.03,0.00,0.18,6.75,-7.07,-0.03,0.01,0.00,0.80,0.06,-9.79,-0.01,0.01,-0.00,1.15,4.58,-8.36,0.01,0.02,-0.01,0.95,-0.27,0.01,0.79,-0.06,0.00,R
24.043,0,255,255,0,255,-5.22,4.15,-7.08,0.00,0.01,-0.01,-0.39,3.84,-8.97,-0.00,0.03,0.00,0.10,6.75,-7.06,-0.02,0.00,0.01,0.80,0.01,-9.77,-0.00,0.01,0.00,1.20,4.62,-8.38,0.01,0.02,-0.01,0.95,-0.27,0.01,0.73,-0.18,0.06,R
24.097,0,255,255,0,255,-5.21,4.19,-7.09,0.00,0.01,-0.00,-0.40,3.85,-8.97,-0.01,0.02,0.00,0.13,6.75,-7.03,-0.03,0.01,0.00,0.83,-0.03,-9.73,-0.01,0.02,0.00,1.13,4.64,-8.32,0.01,0.01,-0.01,0.95,-0.27,0.01,0.73,-0.06,0.12,R
24.146,0,255,0,0,255,-5.21,4.18,-7.06,0.01,0.01,-0.00,-0.38,3.86,-9.01,-0.01,0.03,0.00,0.18,6.78,-7.06,-0.03,0.01,-0.00,0.87,-0.00,-9.77,-0.01,0.02,-0.00,1.20,4.60,-8.35,0.00,0.01,-0.01,0.95,-0.28,0.01,0.73,-0.06,0.06,R
24.196,0,255,255,0,255,-5.21,4.20,-7.03,0.00,0.01,-0.00,-0.45,3.86,-8.98,-0.01,0.02,0.00,0.13,6.75,-7.05,-0.02,0.01,0.00,0.79,-0.02,-9.75,-0.01,0.02,0.00,1.20,4.57,-8.35,0.01,0.02,-0.01,0.95,-0.27,0.01,0.73,-0.18,0.12,R
24.247,0,255,255,255,255,-5.20,4.19,-7.14,0.00,0.02,0.00,-0.45,3.84,-9.09,-0.01,0.02,-0.00,0.11,6.76,-7.11,-0.03,0.01,0.00,0.84,0.05,-9.78,-0.01,0.02,-0.00,1.16,4.62,-8.40,0.01,0.02,-0.01,0.95,-0.27,0.01,0.73,-0.06,0.06,R
24.3,0,255,255,0,255,-5.18,4.21,-7.06,-0.01,0.01,-0.01,-0.38,3.87,-9.05,-0.02,0.04,0.00,0.15,6.76,-7.05,-0.03,0.01,0.00,0.87,0.05,-9.75,-0.01,0.02,-0.01,1.16,4.59,-8.33,0.01,0.02,-0.01,0.95,-0.27,0.01,0.67,-0.06,0.12,R
24.352,0,255,0,0,255,-5.24,4.20,-7.06,0.01,0.01,-0.00,-0.43,3.89,-9.02,0.01,0.02,-0.00,0.20,6.80,-7.08,-0.02,-0.00,0.01,0.83,0.01,-9.80,0.00,0.02,0.00,1.13,4.62,-8.35,-0.00,0.02,-0.00,0.95,-0.27,0.01,0.73,-0.12,0.00,R
24.402,0,255,0,0,255,-5.18,4.12,-7.09,-0.01,0.01,-0.01,-0.39,3.89,-9.04,-0.01,0.03,0.00,0.13,6.78,-7.06,-0.03,0.01,0.00,0.82,0.02,-9.74,-0.01,0.01,0.00,1.22,4.59,-8.38,0.00,0.02,-0.01,0.95,-0.27,0.01,0.73,-0.12,0.12,R
24.454,0,255,255,0,255,-5.22,4.23,-7.08,0.01,0.01,-0.00,-0.41,3.82,-8.99,-0.01,0.03,0.00,0.13,6.73,-7.05,-0.02,0.00,0.00,0.78,0.05,-9.80,-0.01,0.02,-0.01,1.15,4.63,-8.37,0.01,0.02,-0.01,0.95,-0.27,0.01,0.73,-0.06,0.06,R
24.503,0,255,255,0,255,-5.29,4.19,-7.12,0.00,0.01,-0.00,-0.45,3.89,-9.01,-0.00,0.03,0.00,0.10,6.82,-7.05,-0.02,0.00,0.00,0.79,0.03,-9.82,-0.00,0.02,0.00,1.20,4.61,-8.40,0.01,0.02,-0.00,0.95,-0.27,0.01,0.67,-0.06,0.00,R
24.555,0,255,255,0,255,-5.15,4.13,-7.06,0.00,0.01,-0.00,-0.41,3.85,-9.01,-0.01,0.02,0.00,0.13,6.75,-7.03,-0.03,0.01,0.00,0.89,0.03,-9.84,-0.01,0.01,0.00,1.22,4.60,-8.35,0.01,0.01,-0.01,0.95,-0.27,0.01,0.73,-0.06,0.12,R
24.605,0,255,255,0,255,-5.27,4.18,-7.06,0.00,0.01,-0.00,-0.38,3.91,-9.04,-0.01,0.03,0.00,0.04,6.76,-7.05,-0.03,0.01,-0.00,0.85,0.00,-9.75,-0.00,0.01,-0.00,1.19,4.61,-8.40,0.01,0.01,-0.01,0.95,-0.27,0.01,0.73,-0.12,0.00,R
24.656,0,255,255,0,255,-5.16,4.20,-7.03,0.01,0.01,-0.00,-0.41,3.85,-8.97,-0.01,0.02,0.00,0.06,6.75,-7.03,-0.03,0.01,0.00,0.84,0.01,-9.80,-0.01,0.02,0.00,1.17,4.63,-8.39,0.01,0.03,-0.01,0.95,-0.27,0.01,0.67,0.00,0.12,R
24.706,0,255,255,0,255,-5.19,4.20,-7.07,-0.00,0.01,0.00,-0.40,3.89,-8.98,-0.01,0.03,0.00,0.09,6.79,-7.04,-0.03,0.00,0.00,0.85,-0.02,-9.81,-0.01,0.02,0.00,1.19,4.62,-8.38,0.00,0.02,-0.01,0.95,-0.27,0.01,0.67,-0.18,0.12,R
24.759,0,255,255,0,255,-5.20,4.16,-7.08,0.00,0.01,-0.01,-0.37,3.86,-9.05,-0.00,0.02,0.00,0.07,6.76,-7.06,-0.03,0.01,0.00,0.84,0.02,-9.71,-0.01,0.01,-0.01,1.24,4.64,-8.33,0.01,0.02,-0.01,0.95,-0.27,0.01,0.79,-0.18,0.06,R
24.808,0,255,255,0,255,-5.27,4.19,-7.10,0.00,0.02,0.00,-0.45,3.86,-9.01,0.01,0.03,0.01,0.14,6.77,-7.07,-0.03,-0.00,0.00,0.84,0.04,-9.78,-0.01,0.02,-0.00,1.19,4.60,-8.33,0.01,0.02,-0.01,0.95,-0.28,0.01,0.73,0.12,0.24,R
24.86,0,255,255,0,255,-5.26,4.19,-7.10,0.01,0.02,-0.00,-0.40,3.86,-8.98,0.00,0.02,0.00,0.13,6.75,-7.04,-0.02,-0.00,0.00,0.81,0.01,-9.80,-0.00,0.02,-0.00,1.23,4.60,-8.34,0.01,0.02,-0.01,0.95,-0.27,0.01,0.67,0.00,0.18,R
24.913,0,255,255,0,255,-5.19,4.12,-7.11,0.01,0.02,-0.00,-0.42,3.84,-8.97,-0.01,0.02,0.00,0.10,6.76,-7.04,-0.01,-0.00,0.01,0.89,0.03,-9.78,-0.01,0.01,-0.00,1.17,4.61,-8.35,0.01,0.02,-0.01,0.95,-0.28,0.01,0.67,0.06,0.18,R
24.962,0,255,255,0,255,-5.18,4.12,-7.11,0.00,0.01,-0.01,-0.36,3.87,-9.03,-0.01,0.03,0.00,0.12,6.79,-7.08,-0.03,0.01,0.00,0.81,0.05,-9.79,-0.01,0.02,0.00,1.15,4.61,-8.35,0.01,0.02,-0.00,0.95,-0.27,0.01,0.67,0.00,0.12,R
25.014,0,255,255,0,255,-5.19,4.19,-7.06,0.00,0.01,-0.01,-0.38,3.88,-8.95,-0.01,0.03,0.00,0.14,6.78,-7.06,-0.02,0.01,0.00,0.86,0.05,-9.74,-0.00,0.01,0.00,1.20,4.61,-8.41,0.00,0.02,-0.01,0.95,-0.28,0.01,0.73,-0.12,0.00,R
25.063,0,255,255,0,255,-5.21,4.14,-7.08,0.00,0.01,-0.00,-0.41,3.83,-9.02,-0.04,0.03,-0.00,0.14,6.80,-7.05,-0.04,0.01,0.00,0.86,0.07,-9.78,-0.01,0.02,-0.00,1.19,4.58,-8.38,0.01,0.02,-0.01,0.95,-0.27,0.01,0.79,-0.18,0.12,R
25.114,0,255,255,0,255,-5.24,4.10,-7.12,0.01,0.02,-0.01,-0.35,3.89,-9.00,0.00,0.03,0.01,0.12,6.76,-7.09,-0.03,0.01,0.00,0.87,0.03,-9.86,-0.02,0.01,-0.01,1.24,4.64,-8.47,0.01,0.02,-0.01,0.95,-0.27,0.01,0.85,0.00,0.18,R
25.167,0,255,255,255,255,-5.26,4.21,-7.08,0.02,0.01,-0.00,-0.35,3.88,-9.00,0.02,0.02,0.00,0.12,6.78,-7.10,0.01,0.00,0.00,0.90,-0.00,-9.78,-0.01,0.01,-0.00,1.19,4.55,-8.28,0.01,0.02,-0.01,0.95,-0.28,0.01,0.61,-0.31,0.00,R
25.216,0,255,0,0,255,-5.25,4.13,-7.11,-0.03,0.01,-0.00,-0.42,3.94,-9.11,-0.03,0.02,-0.00,0.11,6.76,-7.07,-0.08,-0.01,-0.01,0.82,0.07,-9.77,-0.01,0.02,0.00,1.18,4.59,-8.32,0.00,0.02,-0.01,0.95,-0.27,0.01,0.85,0.12,0.31,R
25.267,0,255,255,0,255,-5.20,4.14,-7.07,-0.01,0.02,-0.01,-0.42,3.80,-9.05,0.03,0.03,0.01,0.10,6.71,-7.16,-0.02,0.01,0.00,0.84,-0.01,-9.77,-0.01,0.02,-0.00,1.16,4.56,-8.38,-0.00,0.02,-0.01,0.95,-0.28,0.01,0.79,0.00,0.06,R
25.319,0,255,255,0,255,-5.19,4.14,-7.02,-0.00,0.01,0.00,-0.38,3.86,-8.98,0.00,0.03,0.01,0.17,6.80,-7.04,-0.00,-0.00,0.01,0.85,0.06,-9.68,-0.01,0.02,0.00,1.21,4.60,-8.36,0.00,0.02,-0.01,0.95,-0.27,0.01,0.67,-0.06,0.06,R
25.372,0,255,255,255,255,-5.18,4.10,-7.11,0.01,0.01,-0.01,-0.40,3.82,-9.05,-0.02,0.02,0.01,0.17,6.68,-7.09,-0.04,0.00,0.00,0.80,0.04,-9.77,-0.02,0.01,-0.00,1.21,4.62,-8.36,-0.00,0.02,-0.01,0.95,-0.27,0.01,0.85,0.24,0.49,R
25.422,0,255,255,255,255,-5.24,4.23,-7.04,0.03,0.02,-0.00,-0.40,3.85,-9.03,-0.00,0.03,0.00,0.11,6.83,-7.06,0.02,0.00,0.01,0.82,-0.00,-9.84,-0.00,0.01,0.00,1.21,4.64,-8.38,0.01,0.02,-0.01,0.95,-0.28,0.01,0.67,-0.43,-0.24,R
25.473,0,255,255,0,255,-5.26,4.12,-7.12,-0.00,0.01,0.01,-0.45,3.85,-9.01,-0.03,0.02,-0.00,0.14,6.79,-7.06,-0.08,0.00,-0.01,0.88,0.01,-9.83,-0.01,0.02,-0.00,1.15,4.63,-8.38,0.00,0.02,-0.01,0.95,-0.28,0.01,0.85,0.37,0.43,R
25.522,0,255,255,0,255,-5.20,4.20,-7.03,0.00,0.01,-0.01,-0.43,3.85,-8.99,0.00,0.03,0.00,0.11,6.81,-7.05,0.00,-0.00,0.00,0.84,-0.00,-9.84,-0.01,0.01,-0.01,1.16,4.66,-8.34,0.01,0.02,-0.01,0.95,-0.27,0.01,0.61,-0.31,-0.24,R
25.575,0,255,0,0,255,-5.21,4.19,-7.09,-0.01,0.01,-0.00,-0.43,3.86,-9.03,-0.06,0.03,-0.01,0.17,6.74,-7.07,-0.02,0.00,0.00,0.84,-0.01,-9.73,-0.01,0.01,-0.00,1.20,4.58,-8.41,0.01,0.02,-0.01,0.95,-0.28,0.01,0.67,0.00,0.18,R
25.624,0,255,255,255,255,-5.28,4.24,-7.05,0.01,0.02,0.00,-0.47,3.95,-8.97,-0.04,0.03,-0.00,0.13,6.82,-7.06,-0.04,0.01,-0.00,0.83,0.01,-9.80,0.01,0.01,0.00,1.13,4.53,-8.33,0.00,0.02,-0.01,0.95,-0.27,0.01,0.61,-0.18,-0.06,R
25.675,255,255,255,0,255,-5.24,4.17,-7.08,-0.01,0.01,-0.01,-0.40,3.86,-9.10,0.02,0.02,0.01,0.14,6.79,-7.10,-0.07,0.00,-0.01,0.82,0.00,-9.80,-0.01,0.02,0.00,1.21,4.60,-8.37,0.01,0.02,-0.01,0.95,-0.27,0.01,0.67,-0.12,0.12,R
25.726,0,255,255,0,255,-5.20,4.20,-7.07,0.01,0.00,-0.01,-0.39,3.83,-8.96,0.02,0.02,0.01,0.18,6.78,-7.03,-0.01,0.01,0.01,0.84,-0.02,-9.81,-0.01,0.02,0.00,1.20,4.63,-8.34,0.00,0.03,-0.01,0.95,-0.27,0.01,0.73,0.00,0.12,R
25.777,0,255,255,0,255,-5.29,4.23,-7.13,-0.00,0.01,-0.00,-0.38,3.84,-8.99,-0.01,0.03,0.00,0.14,6.79,-7.09,-0.02,0.00,0.01,0.84,0.02,-9.78,-0.01,0.01,0.00,1.18,4.61,-8.37,0.01,0.02,-0.01,0.95,-0.27,0.01,0.67,0.06,-0.06,R
25.83,0,255,255,0,255,-5.21,4.18,-7.09,0.00,0.02,-0.00,-0.40,3.85,-9.04,0.01,0.02,0.01,0.15,6.76,-7.07,-0.03,0.01,0.00,0.81,0.01,-9.86,-0.00,0.01,-0.00,1.20,4.64,-8.39,0.01,0.02,-0.01,0.95,-0.27,0.01,0.79,0.18,0.31,R
25.881,0,255,255,0,255,-5.22,4.16,-7.06,0.01,0.01,-0.01,-0.40,3.87,-9.01,0.01,0.02,0.01,0.09,6.82,-7.04,-0.01,0.00,0.01,0.78,0.00,-9.77,0.01,0.02,0.00,1.11,4.59,-8.31,0.00,0.02,-0.01,0.95,-0.27,0.01,0.61,-0.24,-0.18,R
25.931,0,255,255,0,255,-5.20,4.18,-7.13,-0.01,0.01,-0.01,-0.42,3.83,-9.00,-0.02,0.02,-0.00,0.16,6.76,-7.04,-0.04,-0.00,0.00,0.89,0.03,-9.76,-0.01,0.01,-0.00,1.23,4.60,-8.41,0.01,0.02,-0.01,0.95,-0.28,0.01,0.67,-0.06,0.12,R
25.98,0,255,255,0,255,-5.22,4.19,-7.10,0.02,0.02,0.01,-0.36,3.90,-8.97,-0.05,0.03,-0.00,0.13,6.77,-7.08,-0.02,0.02,0.00,0.86,0.07,-9.78,-0.01,0.01,-0.00,1.20,4.68,-8.34,0.01,0.02,-0.01,0.95,-0.27,0.01,0.73,-0.06,0.00,R
26.034,0,255,0,0,255,-5.17,4.16,-7.06,0.03,0.01,-0.00,-0.39,3.88,-9.02,-0.01,0.03,-0.01,0.12,6.76,-7.14,-0.00,0.01,0.00,0.80,-0.05,-9.74,0.01,0.01,-0.00,1.22,4.60,-8.33,0.01,0.02,-0.01,0.95,-0.28,0.01,0.61,-0.49,-0.18,R
26.083,0,255,255,0,255,-5.22,4.20,-7.09,-0.01,0.01,-0.00,-0.43,3.89,-9.07,-0.03,0.02,-0.00,0.12,6.79,-7.05,-0.07,0.01,-0.01,0.88,0.03,-9.80,-0.01,0.02,0.00,1.20,4.64,-8.37,0.00,0.02,-0.01,0.95,-0.27,0.01,0.73,-0.06,0.12,R
26.134,0,255,255,0,255,-5.20,4.25,-7.08,-0.00,0.01,0.00,-0.37,3.88,-9.05,0.02,0.03,0.01,0.08,6.81,-7.10,-0.02,0.01,0.01,0.87,-0.05,-9.82,-0.00,0.02,-0.00,1.19,4.64,-8.36,0.01,0.02,-0.01,0.95,-0.27,0.01,0.67,-0.24,-0.12,R
26.185,0,255,255,0,255,-5.22,4.19,-7.09,0.00,0.01,-0.01,-0.47,3.86,-8.96,-0.00,0.02,0.00,0.13,6.73,-7.06,-0.01,0.01,0.00,0.86,0.02,-9.84,-0.00,0.03,-0.00,1.20,4.59,-8.31,0.01,0.02,-0.01,0.95,-0.27,0.01,0.67,-0.12,-0.12,R
26.235,0,255,255,0,255,-5.22,4.16,-7.14,0.00,0.01,0.00,-0.38,3.88,-8.99,-0.01,0.02,0.00,0.14,6.74,-7.08,-0.05,0.01,-0.00,0.85,-0.00,-9.83,-0.00,0.01,-0.00,1.13,4.57,-8.37,0.00,0.02,-0.01,0.95,-0.27,0.01,0.73,0.06,0.31,R
26.288,0,255,255,0,255,-5.20,4.17,-7.11,0.01,0.02,-0.01,-0.37,3.87,-8.95,0.04,0.02,0.01,0.12,6.75,-7.09,-0.01,0.01,0.01,0.88,0.09,-9.75,-0.00,0.02,0.01,1.16,4.62,-8.31,-0.00,0.02,-0.01,0.95,-0.27,0.01,0.67,0.06,0.18,R
26.34,0,255,255,0,255,-5.25,4.19,-7.12,0.01,0.01,-0.01,-0.40,3.83,-8.98,-0.01,0.03,-0.00,0.08,6.76,-7.08,0.00,-0.00,0.01,0.82,0.00,-9.78,-0.01,0.02,-0.00,1.17,4.63,-8.31,0.00,0.02,-0.01,0.95,-0.28,0.01,0.67,0.00,0.12,R
26.388,0,255,255,0,255,-5.20,4.15,-7.06,-0.00,0.01,-0.01,-0.42,3.92,-9.02,-0.08,0.03,-0.02,0.13,6.79,-7.03,0.00,0.01,0.01,0.85,-0.02,-9.76,-0.00,0.02,0.00,1.18,4.62,-8.32,0.00,0.02,-0.00,0.95,-0.27,0.01,0.67,-0.43,-0.31,R
26.439,0,255,255,255,255,-5.21,4.20,-7.04,0.00,0.00,-0.01,-0.35,3.85,-9.06,-0.06,0.02,-0.01,0.05,6.76,-7.06,-0.07,0.01,-0.01,0.81,-0.03,-9.76,-0.00,0.02,-0.00,1.09,4.55,-8.35,0.00,0.02,-0.01,0.95,-0.28,0.01,0.61,-0.24,-0.12,R
26.491,0,255,255,0,255,-5.22,4.17,-7.04,0.00,0.01,-0.01,-0.39,3.86,-9.11,0.01,0.03,0.01,0.07,6.74,-7.06,-0.03,0.01,0.00,0.89,0.01,-9.78,-0.01,0.02,0.00,1.19,4.59,-8.38,0.00,0.02,-0.01,0.95,-0.28,0.01,0.61,-0.43,-0.37,R
26.542,0,255,255,0,255,-5.19,4.18,-7.09,-0.01,-0.00,-0.01,-0.45,3.91,-9.09,-0.01,0.02,-0.00,0.11,6.78,-7.06,-0.04,0.01,0.00,0.83,0.02,-9.81,-0.01,0.02,-0.00,1.17,4.62,-8.32,0.00,0.02,-0.01,0.95,-0.27,0.01,0.73,-0.12,0.06,R
26.594,0,255,255,0,255,-5.18,4.21,-7.12,-0.00,0.01,0.00,-0.37,3.89,-9.06,0.01,0.02,0.01,0.11,6.83,-7.12,-0.04,0.00,-0.00,0.83,0.03,-9.74,-0.00,0.02,-0.00,1.19,4.58,-8.37,0.00,0.02,-0.01,0.95,-0.27,0.01,0.73,0.18,0.31,R
26.644,0,255,255,0,255,-5.24,4.15,-7.07,-0.01,0.02,-0.01,-0.39,3.84,-8.99,0.05,0.03,0.01,0.16,6.81,-7.05,-0.01,0.00,0.01,0.83,0.01,-9.81,-0.01,0.02,-0.00,1.24,4.61,-8.35,0.00,0.02,-0.00,0.95,-0.27,0.01,0.67,0.06,0.12,R
26.697,0,255,255,0,255,-5.18,4.18,-7.06,-0.01,0.01,-0.00,-0.41,3.84,-8.98,0.01,0.02,0.01,0.13,6.78,-7.05,-0.02,0.00,-0.00,0.86,0.02,-9.73,-0.01,0.02,-0.00,1.16,4.58,-8.35,0.01,0.02,-0.00,0.95,-0.27,0.01,0.73,0.12,0.18,R
26.746,0,255,255,0,255,-5.13,4.14,-7.12,0.01,0.01,-0.00,-0.42,3.85,-8.96,-0.00,0.02,0.01,0.11,6.72,-7.06,-0.04,0.01,0.00,0.84,0.01,-9.80,-0.01,0.01,0.00,1.17,4.56,-8.38,0.01,0.02,-0.01,0.95,-0.27,0.01,0.73,0.18,0.24,R
26.796,0,255,255,255,255,-5.23,4.16,-7.11,0.01,0.01,0.00,-0.38,3.94,-9.02,0.03,0.03,0.01,0.13,6.83,-7.09,-0.02,0.00,0.00,0.85,0.02,-9.81,-0.01,0.01,0.00,1.16,4.64,-8.37,0.01,0.02,-0.01,0.95,-0.27,0.01,0.73,0.24,0.43,R
26.85,0,255,0,0,255,-5.28,4.21,-7.07,0.01,0.02,-0.00,-0.40,3.88,-8.95,0.02,0.03,0.01,0.07,6.78,-7.08,0.01,-0.01,0.01,0.80,-0.06,-9.80,-0.01,0.02,-0.00,1.23,4.57,-8.37,0.00,0.02,-0.01,0.95,-0.28,0.01,0.61,0.00,0.06,R
26.9,0,255,255,0,255,-5.19,4.14,-7.05,-0.00,0.01,-0.00,-0.41,3.83,-9.00,-0.07,0.03,-0.01,0.14,6.79,-7.06,-0.05,0.01,-0.01,0.84,0.03,-9.77,-0.01,0.02,0.01,1.17,4.61,-8.33,0.00,0.02,-0.01,0.95,-0.28,0.01,0.73,0.31,0.43,R
26.951,0,255,255,255,255,-5.25,4.19,-7.02,0.01,0.02,-0.01,-0.41,3.86,-8.98,-0.03,0.02,-0.01,0.12,6.75,-7.07,-0.02,0.00,0.01,0.80,0.07,-9.82,-0.01,0.02,0.00,1.17,4.67,-8.33,0.01,0.02,-0.01,0.95,-0.27,0.01,0.73,0.06,0.12,R
27.002,0,255,255,0,255,-5.26,4.18,-7.07,0.02,0.02,-0.01,-0.42,3.86,-9.00,-0.02,0.03,-0.01,0.11,6.81,-7.11,0.01,-0.00,0.01,0.78,-0.01,-9.73,-0.01,0.01,0.00,1.20,4.57,-8.40,-0.00,0.02,-0.01,0.95,-0.28,0.02,0.43,-0.55,-0.49,R
27.052,0,255,255,0,255,-5.13,4.16,-7.06,-0.04,0.00,-0.00,-0.35,3.91,-9.05,-0.09,0.01,-0.00,0.11,6.86,-7.03,-0.14,0.02,-0.02,0.81,0.07,-9.75,-0.01,0.01,-0.00,1.14,4.62,-8.30,0.01,0.02,-0.01,0.95,-0.27,0.00,0.79,0.06,0.55,R
27.104,0,255,255,0,255,-5.24,4.17,-7.06,0.01,0.03,-0.01,-0.42,3.90,-9.07,0.13,0.03,0.03,0.12,6.73,-7.19,-0.00,0.00,0.01,0.87,0.00,-9.77,-0.01,0.01,0.00,1.22,4.59,-8.37,0.00,0.01,-0.01,0.95,-0.28,0.01,0.73,-0.06,0.12,R
27.156,0,255,255,0,255,-5.27,4.12,-7.03,-0.01,0.00,-0.01,-0.43,3.87,-8.89,0.01,0.02,0.01,0.12,6.78,-7.07,0.02,-0.01,0.01,0.85,0.00,-9.85,-0.01,0.01,0.00,1.20,4.62,-8.39,0.01,0.01,-0.00,0.95,-0.27,0.01,0.79,0.12,0.31,R
27.206,0,255,255,255,255,-5.29,4.17,-7.07,-0.01,0.01,0.01,-0.33,3.90,-9.01,-0.06,0.01,-0.00,0.17,6.74,-7.03,-0.09,0.01,-0.01,0.83,0.05,-9.81,-0.01,0.02,-0.01,1.18,4.71,-8.33,0.00,0.02,-0.01,0.95,-0.27,0.00,1.04,0.79,1.04,R
27.258,0,255,255,0,255,-5.32,4.15,-7.02,0.03,0.04,-0.01,-0.43,3.87,-8.91,0.06,0.04,0.01,0.02,6.79,-7.18,0.08,-0.02,0.01,0.78,-0.09,-9.74,-0.01,0.01,-0.00,1.17,4.57,-8.38,0.01,0.01,-0.01,0.95,-0.28,0.02,0.55,-0.73,-0.55,R
27.309,0,255,255,0,255,-5.20,4.22,-7.13,-0.01,0.01,0.00,-0.41,3.81,-8.99,-0.08,0.01,-0.01,0.20,6.80,-7.13,-0.10,0.00,-0.01,0.95,0.02,-9.79,-0.01,0.01,-0.00,1.19,4.59,-8.32,0.01,0.02,-0.01,0.95,-0.28,0.01,0.79,0.31,0.61,R
27.359,0,255,255,0,255,-5.29,4.16,-7.08,-0.01,0.02,-0.01,-0.46,3.83,-9.04,0.00,0.02,0.00,0.11,6.81,-7.16,-0.07,-0.00,-0.00,0.88,-0.01,-9.76,-0.02,0.02,0.00,1.16,4.64,-8.34,0.00,0.03,-0.01,0.95,-0.27,0.01,0.67,-0.12,-0.06,R
27.409,0,255,255,0,255,-5.13,4.16,-7.08,-0.01,0.03,-0.01,-0.42,3.78,-8.91,0.00,0.04,-0.00,0.20,6.81,-7.08,0.06,-0.01,0.02,0.88,0.02,-9.83,-0.02,0.01,-0.01,1.15,4.64,-8.34,0.00,0.02,-0.01,0.95,-0.28,0.01,0.49,-0.43,-0.31,R
27.46,0,255,255,0,255,-5.18,4.08,-7.01,-0.01,0.00,0.00,-0.45,3.89,-8.99,-0.10,0.03,-0.01,0.11,6.77,-6.94,-0.03,0.01,0.01,0.85,-0.01,-9.75,-0.01,0.02,0.00,1.19,4.59,-8.41,0.01,0.02,-0.01,0.95,-0.27,0.01,0.73,0.06,0.24,R
27.511,0,255,255,0,255,-5.24,4.10,-7.10,0.02,0.04,-0.00,-0.36,3.80,-9.10,-0.01,0.04,0.00,0.22,6.73,-7.12,-0.06,0.01,0.00,0.91,0.06,-9.71,-0.01,0.02,-0.00,1.16,4.70,-8.27,-0.01,0.02,-0.01,0.95,-0.28,0.01,0.85,0.61,0.73,R
27.562,0,255,255,0,255,-5.33,4.15,-6.93,-0.00,0.02,-0.01,-0.53,3.93,-8.85,-0.11,0.04,-0.02,0.03,6.81,-6.96,0.08,-0.01,0.02,0.77,0.03,-9.83,0.01,0.02,0.00,1.08,4.64,-8.36,0.01,0.02,-0.01,0.95,-0.27,0.02,0.61,-0.49,-0.61,R
27.613,0,255,255,0,255,-5.14,4.14,-7.09,0.02,0.02,-0.01,-0.40,3.77,-9.16,-0.12,0.03,-0.03,0.19,6.72,-7.12,-0.05,0.02,-0.01,0.93,-0.05,-9.75,-0.00,0.02,0.00,1.27,4.58,-8.38,0.01,0.02,-0.01,0.94,-0.29,0.01,0.55,-0.37,-0.37,R
27.665,0,255,255,0,255,-5.28,4.15,-7.07,-0.01,0.01,-0.01,-0.40,3.94,-9.08,-0.04,0.02,-0.01,-0.01,6.86,-7.08,-0.10,0.03,-0.01,0.80,-0.00,-9.76,-0.01,0.02,0.00,1.14,4.66,-8.33,0.00,0.02,-0.01,0.95,-0.27,0.01,0.67,-0.31,-0.24,R
27.715,0,255,255,0,255,-5.17,4.19,-7.07,0.00,0.01,-0.01,-0.32,3.85,-9.04,0.01,0.03,0.01,0.21,6.72,-7.19,0.02,0.01,0.01,0.88,-0.01,-9.78,0.00,0.02,-0.00,1.21,4.53,-8.39,0.01,0.02,-0.01,0.95,-0.28,0.01,0.37,-0.92,-0.79,R
27.766,0,255,255,0,255,-5.23,4.18,-7.06,-0.02,-0.01,0.01,-0.40,3.88,-9.06,-0.09,0.01,-0.01,0.14,6.76,-7.07,-0.08,0.01,-0.01,0.78,0.01,-9.80,-0.01,0.02,-0.00,1.18,4.61,-8.37,0.00,0.03,-0.00,0.95,-0.27,0.01,0.85,0.31,0.49,R
27.817,0,255,255,0,255,-5.22,4.23,-7.05,0.01,0.02,-0.01,-0.35,3.84,-9.07,0.06,0.03,0.01,0.13,6.78,-7.11,0.02,0.00,0.01,0.92,0.02,-9.78,-0.01,0.01,0.00,1.21,4.56,-8.32,0.00,0.02,-0.01,0.95,-0.27,0.01,0.55,-0.49,-0.43,R
