Timestamp,Thumb Flex,Pointer Flex,Middle Flex,Ring Flex,Pinky Flex,Thumb Acc. X,Thumb Acc. Y,Thumb Acc. Z,Thumb Gyro X,Thumb Gyro Y,Thumb Gyro Z,Pointer Acc. X,Pointer Acc. Y,Pointer Acc. Z,Pointer Gyro X,Pointer Gyro Y,Pointer Gyro Z,Middle Acc. X,Middle Acc. Y,Middle Acc. Z,Middle Gyro X,Middle Gyro Y,Middle Gyro Z,Ring Acc. X,Ring Acc. Y,Ring Acc. Z,Ring Gyro X,Ring Gyro Y,Ring Gyro Z,Pinky Acc. X,Pinky Acc. Y,Pinky Acc. Z,Pinky Gyro X,Pinky Gyro Y,Pinky Gyro Z,Wrist Gyro X,Wrist Gyro Y,Wrist Gyro Z,Wrist Acc. X,Wrist Acc. Y,Wrist Acc. Z,Hand
0.051,13,255,0,255,80,-1.24,4.43,8.86,0.00,0.02,-0.01,-0.73,1.96,8.93,0.03,-0.09,-0.06,-0.81,-1.10,9.73,0.03,-0.01,-0.02,-0.50,-0.86,9.47,0.03,-0.01,0.01,-1.93,-5.10,7.60,-0.06,-0.02,0.01,-0.47,0.35,0.82,0.00,0.00,0.00,L
0.102,15,255,0,255,80,-1.08,4.03,8.76,0.02,0.02,-0.04,-0.67,0.24,9.93,-0.04,-0.17,-0.34,-1.39,-1.42,10.58,-0.08,0.12,-0.14,-1.25,-0.60,10.74,-0.03,0.01,-0.02,-2.58,-4.96,8.83,-0.05,-0.02,-0.05,-0.46,0.33,0.83,0.00,0.00,0.00,L
0.153,12,255,0,255,81,-1.45,4.14,9.23,0.13,0.05,-0.04,-1.20,1.55,9.75,0.16,-1.04,-0.46,-1.05,-0.96,10.13,0.19,-0.09,-0.30,-0.58,-1.06,9.71,-0.01,-0.07,-0.09,-1.85,-5.08,8.23,0.02,-0.14,-0.08,-0.45,0.35,0.83,0.00,0.00,0.00,L
0.203,12,255,0,255,81,-0.99,4.02,8.73,0.13,0.01,-0.06,-0.41,5.43,9.02,0.53,-0.52,-0.26,-0.61,-0.27,9.54,0.18,-0.10,-0.04,-0.55,-0.38,9.71,0.06,-0.01,0.06,-2.02,-4.66,8.19,0.03,0.04,0.03,-0.45,0.36,0.83,0.00,0.00,0.00,L
0.254,15,255,0,255,82,-1.34,4.39,8.90,0.02,0.00,-0.00,-0.56,3.15,9.66,0.09,0.05,-0.12,-0.91,-1.06,10.08,-0.03,0.03,0.04,-0.71,-1.15,9.95,-0.01,0.03,0.00,-1.98,-5.19,7.96,-0.04,-0.00,-0.05,-0.46,0.34,0.84,0.00,0.00,0.00,L
0.306,14,255,0,255,82,-1.08,4.25,8.74,0.06,-0.03,0.01,0.00,3.00,8.91,-0.05,0.01,0.07,-0.51,-0.70,9.54,0.06,0.02,0.06,-0.44,-0.90,9.55,0.05,0.00,0.03,-1.76,-4.85,7.78,0.00,-0.01,0.04,-0.45,0.36,0.83,0.00,0.00,0.00,L
0.356,16,255,0,255,81,-1.14,4.57,8.83,0.04,0.02,-0.02,-0.52,2.77,9.74,-0.24,0.23,0.20,-0.93,-1.31,10.23,-0.17,0.14,0.06,-0.79,-0.90,10.05,-0.00,0.06,0.03,-2.19,-5.16,8.30,-0.07,0.02,0.02,-0.45,0.34,0.84,0.00,0.00,0.00,L
0.407,15,255,0,255,84,-1.36,4.00,8.90,0.04,0.06,0.01,-0.64,2.04,9.96,-0.12,0.08,0.10,-0.85,-1.18,9.83,0.04,0.09,-0.02,-0.63,-1.17,9.64,0.04,0.09,-0.03,-1.88,-5.07,7.94,0.02,0.05,-0.01,-0.46,0.35,0.83,0.00,0.00,0.00,L
0.458,16,255,0,255,86,-1.22,4.61,8.78,0.04,0.04,-0.00,-0.33,2.62,9.37,0.01,0.17,-0.04,-1.01,-0.49,10.17,0.03,0.11,0.01,-0.87,-0.68,10.14,0.02,0.04,0.02,-2.08,-5.12,8.15,-0.04,0.00,0.02,-0.45,0.35,0.84,0.00,0.00,0.00,L
0.509,14,255,0,255,86,-1.40,4.38,8.95,0.00,0.01,0.03,-0.73,2.35,9.76,-0.04,0.15,-0.04,-1.01,-1.17,9.90,0.03,0.13,0.00,-0.73,-1.08,9.74,0.01,0.13,-0.03,-2.14,-5.23,7.99,-0.00,0.13,-0.03,-0.46,0.35,0.83,0.00,0.00,0.00,L
0.561,16,255,0,255,89,-1.17,4.63,8.83,0.04,0.01,0.01,-0.58,2.74,9.62,-0.02,0.09,-0.04,-1.23,-0.68,10.36,0.02,0.17,-0.02,-0.91,-0.70,10.06,0.03,0.05,0.01,-2.03,-4.92,7.96,-0.01,0.03,-0.01,-0.45,0.35,0.84,0.00,0.00,0.00,L
0.612,15,255,0,255,90,-1.46,4.61,9.08,0.01,-0.01,0.05,-0.77,2.51,9.61,-0.09,0.05,0.03,-1.10,-1.20,9.82,-0.07,0.13,-0.05,-0.66,-1.05,9.47,-0.01,0.03,-0.00,-1.91,-5.10,7.72,-0.03,-0.02,-0.05,-0.45,0.34,0.84,0.00,0.00,0.00,L
0.663,15,255,0,255,90,-1.14,4.33,8.76,0.01,0.00,0.01,-0.81,2.74,9.81,-0.05,0.15,-0.05,-1.03,-0.89,9.34,-0.02,0.30,-0.09,-0.64,-1.12,9.07,0.01,0.38,-0.09,-2.37,-5.15,7.95,0.08,0.78,-0.05,-0.46,0.35,0.84,0.00,0.00,0.00,L
0.713,16,255,0,255,108,-1.23,4.26,8.69,0.02,-0.02,0.08,-0.58,2.56,9.05,-0.16,0.47,-0.09,-2.36,-0.50,10.66,-0.57,1.51,-0.37,-1.66,-0.46,10.37,-0.12,0.90,-0.22,-2.60,-4.83,8.38,-0.04,0.80,-0.14,-0.44,0.35,0.83,0.00,0.00,0.00,L
0.764,15,255,255,255,126,-1.24,4.66,8.96,0.00,-0.04,0.06,-1.24,2.42,9.62,-0.11,0.33,-0.05,-2.05,-1.23,8.06,-0.09,1.06,-0.16,-1.14,-1.58,7.78,0.09,1.24,-0.32,-1.88,-5.91,4.37,0.30,2.08,-0.30,-0.47,0.34,0.84,0.00,0.00,0.00,L
0.815,15,255,0,255,149,-0.90,4.22,8.46,0.04,0.04,0.22,-0.80,2.32,8.40,-0.04,1.80,-0.69,-3.57,-2.05,9.74,-0.60,2.81,-0.57,-2.87,-0.91,9.84,-0.16,2.53,-0.67,-3.87,-4.46,7.87,0.14,2.61,-0.38,-0.43,0.38,0.83,0.00,0.00,0.00,L
0.867,18,255,0,255,172,-1.31,4.92,9.18,-0.04,0.00,0.06,-2.94,2.09,10.55,-0.07,0.36,0.02,-4.24,-2.53,9.69,-0.24,1.25,-0.17,-3.65,-1.73,9.71,-0.37,1.62,-0.38,-5.14,-5.71,7.91,0.04,1.53,-0.24,-0.46,0.35,0.84,0.00,0.00,0.00,L
0.918,19,255,255,255,181,-1.01,4.39,8.60,-0.00,-0.03,0.05,-1.59,1.45,8.63,-0.06,-0.04,0.04,-4.61,-2.04,8.01,-0.24,2.27,-0.59,-4.27,-1.76,7.71,-0.06,2.61,-0.70,-5.42,-4.97,5.47,0.15,2.30,-0.20,-0.46,0.38,0.81,0.00,0.00,0.00,L
0.969,17,255,0,255,193,-1.24,4.53,9.10,0.03,0.01,-0.02,-2.67,2.66,9.83,0.04,0.02,0.01,-6.85,-1.97,9.66,-0.25,1.21,-0.28,-5.66,-1.85,7.96,-0.11,1.50,-0.40,-4.73,-6.00,4.87,-0.01,1.44,-0.13,-0.45,0.36,0.84,0.00,0.00,0.00,L
1.02,19,255,255,255,198,-1.22,4.62,8.99,0.02,-0.09,0.10,-1.88,2.04,8.59,-0.13,-0.05,0.06,-6.06,-2.39,6.46,-0.37,2.54,-0.74,-6.44,-1.75,7.55,-0.34,2.58,-0.88,-7.14,-5.01,6.13,-0.02,2.25,-0.35,-0.45,0.38,0.82,0.00,0.00,0.00,L
1.071,21,255,0,255,211,-1.14,4.44,8.94,0.01,0.02,0.04,-3.03,2.85,10.48,-0.18,0.97,-0.34,-8.19,-2.17,7.43,-0.26,1.97,-0.60,-8.62,-1.84,8.37,-0.16,2.21,-0.73,-8.08,-5.44,5.92,-0.02,1.79,-0.27,-0.46,0.38,0.83,0.00,0.00,0.00,L
1.122,20,255,255,255,215,-1.06,4.39,8.99,0.05,-0.01,0.15,-2.48,2.47,8.50,0.00,0.53,-0.20,-9.05,-2.99,4.46,-0.47,3.70,-0.96,-7.51,-2.06,5.64,-0.06,2.10,-0.72,-6.90,-5.01,4.22,-0.02,1.30,-0.29,-0.44,0.41,0.80,0.00,0.00,0.00,L
1.173,21,255,0,255,221,-1.00,4.68,9.03,0.03,0.02,0.02,-3.71,2.53,9.46,-0.37,1.19,-0.25,-9.96,-3.58,6.26,-0.26,2.63,-0.77,-8.12,-3.24,4.74,-0.08,1.35,-0.44,-6.91,-5.99,2.96,-0.02,0.66,-0.19,-0.45,0.39,0.82,0.00,0.00,0.00,L
1.224,24,255,0,255,222,-0.92,4.63,8.62,-0.01,-0.04,0.12,-3.82,1.64,6.63,-0.43,2.42,-0.61,-9.62,-4.28,4.29,-0.22,4.51,-1.16,-9.13,-2.79,6.39,-0.40,3.00,-0.86,-9.83,-4.79,5.46,0.16,3.80,-0.40,-0.44,0.40,0.80,0.00,0.00,0.00,L
1.274,27,255,0,255,231,-0.72,4.61,8.51,-0.02,0.05,0.14,-5.99,1.59,10.08,-0.18,2.04,-0.74,-9.62,-4.28,1.90,-0.02,2.37,-0.51,-8.68,-3.85,2.64,-0.04,1.70,-0.47,-7.43,-5.78,1.59,0.03,1.57,-0.20,-0.47,0.40,0.81,0.00,0.00,0.00,L
1.325,30,255,0,255,237,-0.86,5.22,8.75,-0.03,0.01,0.08,-7.27,0.13,7.17,-0.54,4.12,-1.76,-7.92,-4.29,-0.30,-0.06,2.28,-0.52,-7.88,-3.62,1.93,0.05,1.82,-0.58,-7.31,-5.51,1.58,0.09,1.71,-0.29,-0.46,0.41,0.80,0.00,0.00,0.00,L
1.376,34,255,0,255,241,-0.69,4.30,8.58,-0.05,0.07,-0.01,-7.56,0.70,5.46,-0.69,2.91,-1.39,-10.42,-4.87,-1.71,-0.07,2.27,-0.57,-9.53,-4.39,1.58,0.04,1.33,-0.47,-8.34,-6.20,0.44,0.27,1.21,-0.14,-0.47,0.39,0.83,0.00,0.00,0.00,L
1.428,34,255,0,255,246,-1.26,4.71,8.91,-0.08,0.06,0.14,-10.41,-0.56,5.16,-0.08,3.93,-1.71,-8.20,-5.40,-0.95,0.07,2.85,-0.74,-8.36,-4.82,1.50,-0.04,2.24,-0.75,-11.53,-7.68,7.94,0.59,1.20,-0.24,-0.47,0.42,0.79,0.00,0.00,0.00,L
1.479,38,255,0,255,249,-0.73,4.66,8.70,0.02,0.16,0.04,-9.33,-0.65,2.72,0.06,2.08,-0.93,-8.17,-5.24,-3.40,-0.07,1.79,-0.49,-11.24,-3.24,-0.20,-0.22,2.31,-0.25,-6.94,-7.53,0.27,0.26,1.36,-0.15,-0.47,0.41,0.80,0.00,0.00,0.00,L
1.53,43,255,0,255,255,-1.51,4.58,9.19,-0.10,0.32,-0.03,-10.51,-0.70,3.86,0.16,2.41,-1.27,-7.19,-5.49,-2.45,-0.06,1.41,-0.42,-8.75,-5.27,-0.25,0.09,1.21,-0.45,-8.35,-6.34,0.45,0.24,1.12,-0.01,-0.47,0.41,0.79,0.00,0.00,0.00,L
1.581,48,255,0,255,255,-0.72,4.08,8.35,-0.06,0.17,0.02,-9.55,-2.11,0.62,0.08,1.60,-0.86,-7.83,-5.77,-4.31,-0.00,0.98,-0.28,-9.07,-5.26,-0.84,0.03,0.48,-0.23,-8.04,-6.59,-0.96,0.04,0.64,-0.01,-0.47,0.40,0.81,0.00,0.00,0.00,L
1.632,50,255,0,255,255,-1.33,4.11,8.93,-0.14,0.03,0.14,-8.51,-2.31,0.61,0.00,1.33,-0.84,-7.52,-5.30,-4.09,0.01,1.16,-0.32,-8.28,-4.98,-0.68,0.06,0.84,-0.32,-7.65,-6.04,-0.71,0.31,0.91,-0.15,-0.46,0.42,0.78,0.00,0.00,0.00,L
1.682,55,255,0,255,255,-0.96,4.70,8.70,-0.05,-0.03,0.00,-9.42,-2.78,-1.43,-0.04,0.81,-0.63,-6.22,-5.55,-5.62,-0.03,0.52,-0.12,-8.46,-5.24,-1.94,-0.02,0.18,-0.11,-7.19,-6.57,-1.68,0.14,0.40,-0.00,-0.49,0.39,0.80,0.00,0.00,0.00,L
1.734,57,255,0,255,255,-1.16,4.50,8.70,-0.01,0.05,0.12,-9.78,-3.22,-2.05,-0.17,1.31,-0.77,-7.67,-5.65,-4.19,0.00,0.63,-0.26,-9.10,-5.05,-1.23,0.04,0.19,-0.26,-7.75,-6.46,-1.57,0.08,0.32,-0.19,-0.46,0.42,0.79,0.00,0.00,0.00,L
1.785,63,255,0,255,253,-0.79,3.82,8.63,-0.17,0.15,0.08,-9.31,-2.90,-1.80,0.04,0.57,-0.46,-6.29,-5.34,-5.05,-0.01,0.50,-0.17,-7.36,-5.21,-1.65,0.01,0.30,-0.18,-7.14,-6.45,-2.17,0.31,0.48,-0.16,-0.50,0.41,0.77,0.00,0.00,0.00,L
1.836,67,255,0,255,255,-1.38,4.70,9.07,-0.00,0.18,0.14,-8.29,-4.40,-1.46,-0.03,0.23,-0.34,-5.67,-6.04,-3.94,-0.02,0.57,-0.15,-6.34,-5.27,-0.92,0.07,0.43,-0.13,-6.48,-6.11,-1.07,0.25,0.52,0.02,-0.45,0.45,0.76,0.00,0.00,0.00,L
1.887,72,255,0,255,255,-1.46,4.77,8.98,-0.02,0.15,-0.09,-9.44,-3.77,-1.77,0.01,0.27,-0.29,-5.36,-5.95,-5.76,0.04,0.05,-0.02,-7.50,-5.74,-2.43,0.04,0.10,-0.00,-6.75,-6.67,-1.89,0.20,0.23,0.09,-0.50,0.40,0.80,0.00,0.00,0.00,L
1.937,77,255,255,255,255,-1.04,4.73,8.14,-0.10,0.28,0.09,-8.84,-3.44,-0.97,0.13,0.43,-0.40,-6.62,-5.32,-4.99,-0.04,0.49,-0.21,-8.15,-5.06,-2.21,0.04,0.52,-0.26,-7.42,-6.48,-1.32,0.35,0.46,-0.05,-0.48,0.42,0.79,0.00,0.00,0.00,L
1.989,79,255,0,255,255,-1.72,4.23,9.09,-0.10,0.25,0.11,-8.52,-4.53,-1.06,0.01,0.19,-0.35,-4.92,-5.98,-5.02,0.01,0.30,-0.13,-7.05,-5.63,-1.90,0.09,0.62,-0.20,-6.87,-6.21,-1.24,0.43,0.47,-0.01,-0.49,0.43,0.76,0.00,0.00,0.00,L
2.04,85,255,255,255,255,-1.45,4.08,8.99,-0.16,0.43,0.08,-8.98,-4.15,-2.04,-0.00,0.53,-0.44,-6.39,-5.98,-5.98,-0.13,0.47,-0.23,-8.69,-5.43,-2.51,-0.05,0.33,-0.21,-7.67,-6.90,-1.68,0.36,0.25,-0.07,-0.49,0.39,0.81,0.00,0.00,0.00,L
2.091,87,255,0,255,252,-1.68,3.63,8.61,-0.11,0.17,0.10,-7.93,-4.61,-1.72,-0.01,0.29,-0.28,-4.24,-5.59,-5.05,-0.06,0.38,-0.11,-7.22,-5.49,-2.25,0.02,0.39,-0.08,-7.69,-6.53,-1.56,0.01,0.32,-0.09,-0.49,0.43,0.77,0.00,0.00,0.00,L
2.142,88,255,255,255,252,-2.00,4.57,9.28,-0.09,0.24,0.03,-9.22,-4.92,-2.32,-0.11,0.37,-0.28,-6.37,-6.64,-6.33,-0.00,-0.10,-0.04,-8.91,-6.46,-2.46,0.06,-0.57,0.10,-7.71,-7.53,-1.93,-0.69,-0.67,0.07,-0.52,0.35,0.80,0.00,0.00,0.00,L
2.194,88,255,0,255,248,-1.88,3.43,8.94,0.07,-0.04,0.01,-7.76,-4.15,-1.42,-0.03,-0.21,0.09,-5.26,-5.46,-4.73,0.07,-0.04,0.08,-7.77,-5.19,-1.80,0.03,-0.06,0.07,-7.29,-6.15,-1.71,-0.59,-0.08,-0.04,-0.47,0.43,0.77,0.00,0.00,0.00,L
2.245,84,255,0,255,248,-1.87,4.02,9.20,0.12,-0.12,-0.20,-9.94,-4.61,-1.87,-0.28,-0.77,0.37,-8.16,-6.97,-4.56,0.17,-1.11,0.31,-10.89,-5.99,-0.09,-0.02,-1.30,0.48,-8.69,-6.90,0.59,-3.02,-1.70,-0.70,-0.51,0.37,0.79,0.00,0.00,0.00,L
2.295,74,255,0,255,249,-1.74,3.80,8.49,0.59,-0.71,-0.40,-10.86,-4.66,1.18,-0.81,-5.28,2.84,-8.56,-6.18,-3.49,0.84,-8.75,2.52,-4.68,-6.26,-5.26,1.20,-7.79,3.08,-6.93,1.03,-0.59,0.55,-1.07,0.09,-0.51,0.41,0.79,0.00,0.00,0.00,L
2.345,65,255,0,255,249,-0.69,5.02,8.11,0.58,-0.28,-0.46,-10.67,-1.60,3.57,-0.14,-6.91,3.28,-11.10,-4.55,-0.30,0.18,-7.59,1.96,-10.47,-3.12,4.73,0.22,-5.51,1.88,-9.61,-5.66,1.17,-0.80,-5.50,0.99,-0.45,0.41,0.81,0.00,0.00,0.00,L
2.397,57,255,0,255,233,-1.90,5.21,9.03,0.33,0.07,-0.35,-8.74,-1.33,3.35,0.62,-6.25,2.93,-11.02,-4.41,1.44,0.25,-8.24,2.13,-9.65,-3.95,4.31,0.40,-7.00,2.24,-8.88,-6.25,0.96,-0.71,-8.69,1.15,-0.47,0.42,0.79,0.00,0.00,0.00,L
2.448,52,255,0,255,200,-1.39,4.87,8.33,0.26,-0.02,-0.20,-6.07,-0.18,5.55,1.27,-3.68,1.98,-5.99,-3.05,3.64,0.55,-6.06,1.71,-5.75,-1.97,5.23,0.16,-5.11,1.86,-6.50,-5.71,3.40,-0.19,-6.42,1.07,-0.44,0.43,0.81,0.00,0.00,0.00,L
2.498,45,255,0,255,176,-1.90,5.68,8.77,0.17,0.03,-0.06,-5.04,0.66,6.50,0.49,-2.65,1.45,-4.88,-2.48,5.23,0.40,-2.77,0.87,-3.47,-2.37,6.53,0.02,-2.68,0.87,-4.64,-6.29,3.73,-0.37,-2.85,0.56,-0.40,0.42,0.81,0.00,0.00,0.00,L
2.549,43,255,0,255,158,-1.58,5.10,8.23,-0.06,-0.08,-0.08,-4.86,1.55,8.51,0.25,-1.63,0.81,-6.11,-1.94,8.62,0.22,-2.35,0.58,-4.73,-1.70,9.83,0.09,-2.87,0.74,-7.16,-5.26,8.20,-0.16,-3.11,0.57,-0.45,0.41,0.82,0.00,0.00,0.00,L
2.6,38,255,0,255,141,-1.58,5.12,8.40,0.01,0.02,0.01,-4.24,1.80,9.14,0.16,-1.31,0.63,-3.24,-2.59,8.16,0.46,-1.54,0.51,-2.20,-2.63,7.16,0.32,-1.21,0.35,-2.92,-5.41,6.27,0.09,-2.12,0.25,-0.43,0.43,0.80,0.00,0.00,0.00,L
2.652,40,255,0,255,123,-1.52,4.88,8.45,0.05,-0.00,-0.11,-3.33,2.22,9.05,0.18,-0.79,0.28,-4.78,-0.72,10.11,0.19,-1.04,0.28,-2.52,-0.67,9.80,0.02,-1.00,0.33,-3.94,-4.81,8.39,-0.09,-1.32,0.15,-0.44,0.39,0.84,0.00,0.00,0.00,L
2.702,38,255,0,255,109,-1.87,5.10,8.53,-0.03,0.01,0.03,-2.24,1.78,8.49,0.09,-1.03,0.35,-2.89,-1.97,8.50,0.35,-1.13,0.23,-0.80,-1.70,8.33,0.20,-0.89,0.13,-2.64,-5.26,7.29,0.08,-1.19,0.04,-0.43,0.42,0.81,0.00,0.00,0.00,L
2.754,36,255,0,255,99,-1.37,5.09,8.27,0.00,0.02,-0.03,-2.22,2.32,9.38,0.02,-0.78,0.09,-3.85,-0.30,10.86,0.17,-0.54,0.07,-2.25,0.12,11.10,0.02,-0.62,0.21,-3.23,-5.47,8.64,0.07,-0.83,0.11,-0.43,0.40,0.83,0.00,0.00,0.00,L
2.804,34,255,0,255,93,-1.94,5.11,8.72,-0.02,-0.02,0.05,-1.89,2.49,9.60,0.13,-0.76,0.22,-1.87,-2.04,9.10,0.28,-0.73,0.14,-0.28,-1.28,8.97,0.14,-0.50,0.08,-1.62,-5.14,7.57,0.04,-0.49,0.04,-0.42,0.41,0.81,0.00,0.00,0.00,L
2.856,33,255,0,255,86,-1.35,4.95,8.14,-0.00,0.01,-0.04,-1.24,2.28,9.17,0.24,-0.39,-0.09,-2.81,-0.30,10.42,0.31,-0.46,0.01,-1.46,-0.07,10.46,0.20,-0.31,0.07,-2.41,-4.70,8.66,0.05,-0.30,0.15,-0.43,0.39,0.82,0.00,0.00,0.00,L
2.906,32,255,0,255,84,-1.99,5.39,8.86,0.02,0.03,0.04,-1.74,3.93,9.67,0.24,-0.53,0.21,-1.48,-1.65,9.34,0.01,-0.41,0.17,-0.40,-1.25,9.42,0.01,-0.32,0.07,-1.16,-5.14,7.47,-0.01,-0.26,-0.03,-0.41,0.39,0.83,0.00,0.00,0.00,L
2.957,33,255,0,255,82,-1.51,4.88,8.23,-0.01,0.01,-0.02,-0.70,2.14,9.03,0.06,-0.21,-0.09,-1.21,-1.06,9.38,0.24,-0.00,-0.07,-1.04,-0.36,10.32,0.14,0.09,-0.07,-2.24,-4.69,8.51,0.09,0.08,0.02,-0.44,0.41,0.82,0.00,0.00,0.00,L
3.008,32,255,0,255,82,-1.65,5.43,8.48,0.03,0.03,0.04,-2.26,4.23,10.71,0.09,-0.21,0.06,-1.56,-1.31,9.79,-0.05,-0.21,0.12,-0.63,-0.96,9.97,0.04,-0.24,0.04,-1.47,-5.08,7.62,-0.02,-0.14,-0.03,-0.41,0.39,0.83,0.00,0.00,0.00,L
3.059,32,255,0,255,81,-1.33,4.69,8.04,-0.03,0.00,0.01,-0.55,2.19,9.00,0.05,-0.07,-0.08,-0.79,-1.48,9.04,0.14,0.01,-0.06,-0.64,-0.76,9.80,0.09,0.20,-0.04,-2.06,-5.05,8.51,-0.01,0.10,0.04,-0.43,0.40,0.82,0.00,0.00,0.00,L
3.11,32,255,0,255,86,-1.62,5.32,8.48,0.03,0.02,0.05,-1.46,3.30,10.01,-0.06,0.01,0.03,-2.09,-0.40,10.69,-0.04,0.10,0.00,-0.73,-0.85,10.05,-0.02,0.01,0.05,-1.75,-5.16,8.28,-0.09,-0.13,-0.03,-0.42,0.39,0.84,0.00,0.00,0.00,L
3.161,30,255,0,255,92,-1.58,4.93,8.25,0.01,-0.03,0.04,-0.99,2.20,9.47,-0.13,0.01,-0.02,-1.99,-1.05,10.40,-0.04,0.14,-0.09,-0.77,-0.57,9.96,0.00,0.09,-0.03,-2.25,-5.01,8.82,-0.04,0.19,-0.02,-0.42,0.40,0.82,0.00,0.00,0.00,L
3.213,31,255,0,255,94,-1.45,5.23,8.46,0.03,-0.00,0.07,-1.01,2.92,9.33,-0.09,0.15,0.05,-1.24,-0.93,8.76,0.04,0.54,-0.13,-0.44,-0.50,9.18,-0.05,0.20,0.00,-1.59,-5.01,7.70,-0.10,0.14,-0.04,-0.42,0.40,0.84,0.00,0.00,0.00,L
3.264,31,255,0,255,103,-1.40,4.65,8.12,-0.07,-0.03,0.03,-1.00,2.06,9.47,0.00,0.04,-0.01,-2.74,-0.77,10.93,-0.19,0.88,-0.23,-1.46,-0.43,10.62,-0.04,0.31,-0.04,-2.40,-5.39,8.80,-0.11,0.08,0.04,-0.44,0.40,0.83,0.00,0.00,0.00,L
3.315,29,255,0,255,104,-1.42,5.00,8.43,0.02,0.00,-0.01,-0.97,1.87,9.31,0.02,-0.01,0.08,-2.92,-0.71,8.44,-0.22,1.93,-0.44,-0.62,-1.02,9.03,-0.13,0.52,-0.16,-1.91,-5.00,8.00,-0.07,0.04,-0.04,-0.42,0.40,0.83,0.00,0.00,0.00,L
3.365,28,255,0,255,111,-1.62,4.88,8.32,-0.06,-0.01,0.03,-0.76,2.45,9.06,-0.03,0.33,0.03,-5.33,-1.22,12.62,-0.46,3.11,-0.70,-0.92,-1.38,9.70,-0.23,0.82,-0.19,-1.47,-4.94,7.85,-0.13,0.14,0.01,-0.40,0.42,0.82,0.00,0.00,0.00,L
3.418,31,255,0,255,113,-1.11,4.75,8.15,-0.09,0.02,-0.08,-1.65,3.53,10.04,0.07,0.11,-0.03,-5.72,-1.45,9.22,-0.24,1.67,-0.37,-1.93,-1.19,10.13,-0.04,0.46,0.01,-2.35,-5.31,8.54,-0.01,-0.03,0.10,-0.45,0.41,0.83,0.00,0.00,0.00,L
3.468,28,255,0,255,116,-1.99,4.69,8.76,0.01,0.05,-0.04,-1.03,1.98,9.22,-0.01,0.15,0.03,-5.60,-2.32,8.08,-0.59,2.26,-0.65,-2.01,-0.99,9.43,-0.14,0.89,-0.25,-2.16,-4.64,8.07,-0.06,0.21,-0.06,-0.41,0.40,0.82,0.00,0.00,0.00,L
3.519,28,255,0,255,118,-1.57,5.13,8.55,-0.07,0.01,-0.05,-1.60,2.78,9.86,0.01,0.08,-0.02,-7.13,-1.93,8.16,-0.22,1.49,-0.41,-3.00,-1.29,9.89,-0.14,0.82,-0.19,-2.46,-4.89,8.63,-0.05,0.12,0.02,-0.43,0.42,0.82,0.00,0.00,0.00,L
3.569,30,255,0,255,119,-1.63,5.19,8.63,-0.02,-0.00,-0.03,-1.15,2.49,9.04,-0.01,0.09,0.06,-6.46,-2.93,7.35,-0.72,1.69,-0.56,-2.56,-1.59,8.96,-0.22,0.93,-0.21,-1.71,-5.26,7.38,-0.07,0.06,-0.03,-0.42,0.41,0.81,0.00,0.00,0.00,L
3.62,30,255,0,255,123,-1.42,4.83,8.40,-0.04,-0.00,-0.04,-1.17,2.26,9.36,0.07,0.06,-0.08,-9.17,-2.55,7.57,-0.03,0.95,-0.37,-4.14,-0.47,10.69,-0.03,0.36,-0.05,-2.64,-5.29,8.66,-0.08,0.06,0.12,-0.43,0.42,0.83,0.00,0.00,0.00,L
3.671,30,255,255,255,124,-1.67,5.11,8.71,-0.05,-0.02,-0.04,-2.03,3.12,10.01,0.03,-0.14,0.01,-7.13,-2.90,2.77,-0.01,0.67,-0.19,-2.77,-1.92,7.39,-0.10,0.52,-0.02,-2.38,-5.51,8.37,-0.08,-0.05,0.01,-0.44,0.41,0.83,0.00,0.00,0.00,L
3.723,28,255,0,255,123,-1.54,4.71,8.34,-0.05,-0.03,-0.08,-1.40,2.27,9.59,0.09,0.18,-0.19,-7.40,-2.60,7.20,-0.04,1.14,-0.37,-3.67,-0.96,9.62,-0.06,0.96,-0.19,-2.64,-5.60,8.50,-0.10,0.17,0.10,-0.43,0.43,0.82,0.00,0.00,0.00,L
3.774,31,255,0,255,126,-1.54,4.96,8.56,-0.02,0.01,-0.07,-1.92,3.19,9.57,0.01,0.11,-0.02,-9.03,-3.22,4.39,-0.10,0.70,-0.18,-3.91,-1.77,7.99,-0.09,0.61,-0.10,-2.47,-5.69,7.81,-0.05,0.11,-0.02,-0.43,0.40,0.83,0.00,0.00,0.00,L
3.824,29,255,0,255,130,-1.61,4.70,8.31,-0.02,-0.03,-0.01,-0.42,1.58,8.21,0.05,0.46,-0.26,-5.98,-2.92,5.15,0.01,2.01,-0.32,-3.51,-2.15,6.85,-0.10,3.21,-0.71,-1.48,-6.35,-0.14,0.72,5.28,-0.48,-0.41,0.43,0.81,0.00,0.00,0.00,L
3.876,31,255,0,255,174,-1.64,5.47,8.87,-0.01,0.00,-0.08,-2.89,3.01,10.60,0.03,0.24,-0.19,-9.93,-3.21,5.04,0.09,0.63,-0.23,-6.58,-1.99,8.91,-0.01,1.25,-0.26,-5.57,-7.34,8.18,-0.03,1.97,-0.36,-0.44,0.39,0.84,0.00,0.00,0.00,L
3.927,30,255,255,255,192,-1.59,4.44,8.36,0.05,-0.12,0.07,-0.75,1.08,7.06,0.06,0.38,-0.21,-7.14,-3.30,4.02,0.01,2.07,-0.40,-6.52,-1.28,8.00,-0.03,2.84,-0.82,-6.63,-3.77,8.32,0.22,4.49,-0.57,-0.41,0.43,0.80,0.00,0.00,0.00,L
3.978,32,255,0,255,208,-1.66,5.77,8.72,-0.02,-0.02,0.01,-3.50,2.30,10.16,-1.00,1.33,-0.78,-9.53,-3.85,4.05,-0.07,0.93,-0.27,-7.50,-2.16,7.69,-0.07,0.94,-0.29,-7.11,-4.81,7.14,-0.05,2.38,-0.36,-0.43,0.41,0.82,0.00,0.00,0.00,L
4.028,31,255,0,255,221,-1.51,4.67,8.73,-0.02,-0.06,0.00,-2.66,2.81,8.60,-0.06,0.74,-0.31,-9.10,-3.88,3.69,-0.06,1.48,-0.34,-6.97,-2.42,6.52,-0.07,1.34,-0.42,-6.56,-5.26,4.32,0.02,1.58,-0.22,-0.43,0.43,0.81,0.00,0.00,0.00,L
4.08,33,255,0,255,225,-1.13,4.95,8.23,-0.02,-0.09,-0.02,-3.32,2.84,9.27,-0.18,0.92,-0.34,-10.07,-4.16,3.25,-0.14,1.27,-0.27,-8.20,-2.36,6.47,-0.09,0.95,-0.27,-8.35,-5.51,5.34,-0.09,0.31,-0.00,-0.42,0.43,0.81,0.00,0.00,0.00,L
4.131,32,255,0,255,222,-1.59,4.98,8.53,-0.04,-0.02,0.03,-4.48,2.88,9.75,-0.10,0.19,-0.03,-7.96,-4.44,1.24,-0.05,0.24,-0.03,-7.26,-2.85,5.55,0.02,0.03,-0.02,-7.18,-5.51,4.85,-0.03,-0.79,0.02,-0.44,0.41,0.81,0.00,0.00,0.00,L
4.182,33,255,0,255,217,-1.27,4.80,8.49,0.00,0.02,-0.03,-3.28,2.70,8.73,-0.04,0.30,-0.15,-9.89,-3.81,2.35,-0.04,0.92,-0.19,-8.28,-2.45,6.20,-0.04,0.44,-0.08,-7.66,-6.01,4.79,-0.13,-0.34,0.12,-0.42,0.43,0.83,0.00,0.00,0.00,L
4.233,31,255,0,255,210,-1.57,4.65,8.58,-0.03,0.02,0.03,-4.22,1.81,9.09,-0.07,0.01,0.05,-9.01,-4.53,2.39,0.02,-0.26,0.08,-7.24,-2.83,5.05,0.12,-0.40,0.14,-6.40,-5.40,4.17,0.04,-0.50,0.04,-0.45,0.42,0.80,0.00,0.00,0.00,L
4.284,32,255,0,255,206,-1.45,5.29,8.48,0.03,0.02,-0.01,-4.07,2.87,9.02,-0.17,0.38,-0.15,-9.96,-3.93,1.70,-0.01,-0.03,-0.05,-8.83,-2.04,6.42,-0.02,-0.38,0.11,-7.60,-5.27,5.42,-0.09,-0.80,0.02,-0.41,0.41,0.83,0.00,0.00,0.00,L
4.334,32,255,0,255,200,-1.37,4.41,8.42,-0.03,-0.02,0.00,-3.56,0.97,8.73,-0.06,-0.05,-0.04,-8.16,-4.10,1.65,-0.02,-0.47,0.12,-6.70,-2.72,5.40,0.00,-0.70,0.24,-4.33,-4.55,3.38,0.05,-0.50,0.12,-0.44,0.43,0.80,0.00,0.00,0.00,L
4.385,32,255,0,255,199,-1.87,5.32,9.07,0.06,0.01,0.01,-4.42,1.96,9.07,-0.10,-0.12,0.04,-9.22,-4.18,2.23,0.00,-0.61,0.10,-7.69,-2.08,6.50,0.05,-0.73,0.16,-6.47,-5.12,5.03,0.01,-0.11,-0.07,-0.42,0.41,0.82,0.00,0.00,0.00,L
4.437,32,255,0,255,195,-1.36,4.44,8.67,0.02,0.00,-0.07,-3.95,2.14,9.16,-0.04,-0.31,0.05,-7.98,-3.89,1.54,0.08,-2.08,0.40,-6.95,-2.34,5.82,0.18,-1.67,0.47,-7.05,-5.62,5.09,-0.04,-0.64,0.09,-0.44,0.43,0.81,0.00,0.00,0.00,L
4.487,31,255,0,255,195,-1.55,5.18,8.46,0.03,-0.00,0.01,-4.19,2.36,9.28,-0.15,-0.37,0.19,-9.49,-3.90,4.28,-0.02,-1.80,0.38,-6.89,-2.01,8.13,0.22,-2.16,0.66,-6.29,-5.27,5.76,0.00,-0.64,0.07,-0.42,0.42,0.81,0.00,0.00,0.00,L
4.539,30,255,0,255,192,-1.22,4.53,8.20,0.01,-0.01,-0.12,-3.18,1.48,9.05,-0.00,-0.57,0.12,-13.08,-3.17,7.71,0.95,-5.94,1.38,-7.12,-1.37,9.85,0.27,-4.92,1.27,-6.32,-5.21,6.64,-0.08,-2.03,0.31,-0.45,0.42,0.81,0.00,0.00,0.00,L
4.59,29,255,0,255,180,-1.48,5.18,8.58,0.12,0.02,-0.09,-3.29,2.55,9.11,0.01,-0.50,0.10,-6.68,-3.39,4.89,0.85,-5.91,1.61,-2.96,-1.65,7.86,0.34,-3.09,0.74,-4.23,-5.21,4.77,-0.12,-3.88,0.43,-0.41,0.42,0.82,0.00,0.00,0.00,L
4.643,28,255,0,255,162,-1.64,5.23,8.60,0.04,0.02,-0.06,-2.98,2.60,8.83,0.04,-0.41,0.10,-5.95,-1.59,7.39,0.24,-2.72,0.57,-2.35,-0.81,8.97,0.14,-1.18,0.29,-4.27,-5.01,6.22,-0.04,-1.15,0.22,-0.41,0.41,0.82,0.00,0.00,0.00,L
4.693,28,255,0,255,157,-1.48,5.18,8.37,-0.02,-0.02,0.04,-2.83,2.49,9.33,0.01,-0.40,0.17,-3.40,-2.01,8.40,0.19,-1.63,0.41,-1.92,-1.06,9.56,0.03,-0.84,0.22,-3.96,-5.25,6.87,-0.03,-1.03,0.15,-0.42,0.41,0.82,0.00,0.00,0.00,L
4.743,28,255,0,255,150,-1.50,4.71,8.30,0.00,0.00,0.03,-2.50,2.21,9.00,0.03,-0.22,0.01,-3.55,-1.69,9.46,0.13,-0.44,0.09,-1.57,-0.87,9.64,0.08,-0.37,0.10,-3.90,-4.96,7.24,0.02,-0.52,0.13,-0.43,0.42,0.82,0.00,0.00,0.00,L
4.794,28,255,0,255,146,-1.58,5.20,8.51,0.00,0.04,0.01,-2.92,3.06,9.47,-0.01,-0.21,0.08,-3.31,-1.26,9.87,-0.01,-0.40,0.11,-1.74,-0.79,10.23,-0.04,-0.34,0.11,-4.07,-5.21,7.86,-0.07,-0.38,0.09,-0.42,0.41,0.84,0.00,0.00,0.00,L
4.845,28,255,0,255,141,-1.23,4.78,8.15,-0.04,-0.02,0.03,-2.05,2.07,8.79,-0.04,-0.07,-0.01,-1.76,-2.10,8.43,0.05,-0.07,0.05,-0.85,-1.56,9.05,0.03,-0.09,0.03,-3.04,-5.43,7.05,-0.02,-0.17,0.04,-0.44,0.43,0.81,0.00,0.00,0.00,L
4.896,27,255,0,255,131,-1.25,5.04,8.22,0.01,0.05,-0.04,-2.82,3.04,9.62,0.03,0.01,-0.04,-2.93,-1.49,9.51,0.03,-0.05,0.04,-1.82,-0.73,10.21,0.02,-0.04,0.02,-4.00,-5.17,7.62,-0.01,-0.10,0.02,-0.43,0.40,0.83,0.00,0.00,0.00,L
4.947,26,255,0,255,139,-1.80,5.05,8.87,0.02,0.01,0.01,-2.58,2.27,9.37,-0.03,-0.04,-0.05,-3.02,-1.56,9.79,0.02,0.01,-0.05,-1.30,-0.76,9.80,0.01,0.01,-0.02,-3.68,-4.96,7.79,-0.02,-0.02,-0.01,-0.42,0.41,0.82,0.00,0.00,0.00,L
4.998,25,255,0,255,134,-1.46,5.21,8.40,-0.01,0.03,0.01,-2.59,2.83,9.29,-0.06,0.03,-0.04,-2.90,-1.39,9.53,-0.03,0.01,0.01,-1.50,-0.84,10.03,-0.03,0.05,0.03,-3.94,-5.27,7.90,-0.05,-0.00,0.04,-0.42,0.40,0.82,0.00,0.00,0.00,L
5.048,25,255,0,255,136,-1.78,5.13,8.61,-0.02,-0.00,0.06,-2.65,2.38,9.31,-0.08,-0.10,0.05,-2.38,-1.94,9.00,-0.03,-0.06,0.00,-1.12,-1.42,9.49,-0.03,-0.02,-0.02,-3.25,-5.10,7.35,-0.00,-0.05,-0.07,-0.43,0.42,0.82,0.00,0.00,0.00,L
5.1,25,255,0,255,136,-1.28,4.86,8.22,-0.02,0.01,0.05,-2.11,2.29,9.34,-0.01,0.11,-0.05,-3.39,-1.33,10.23,0.02,0.12,-0.04,-1.45,-0.85,9.82,0.02,0.06,0.00,-3.54,-4.87,7.61,-0.03,0.09,0.05,-0.43,0.42,0.81,0.00,0.00,0.00,L
5.15,26,255,0,255,135,-1.70,5.17,8.64,0.01,0.03,0.02,-2.62,2.41,9.27,-0.06,0.02,-0.06,-3.15,-1.37,9.79,-0.01,0.04,-0.03,-1.65,-0.71,10.09,-0.01,0.07,-0.03,-3.82,-5.06,7.60,-0.03,0.07,-0.01,-0.42,0.40,0.82,0.00,0.00,0.00,L
5.203,25,255,255,255,134,-1.54,5.00,8.50,-0.04,0.01,0.01,-2.25,2.47,9.16,-0.04,0.07,-0.08,-2.55,-1.68,9.17,0.01,0.17,-0.06,-1.32,-0.96,9.61,-0.01,0.14,-0.03,-3.35,-5.13,7.31,-0.04,0.03,0.04,-0.43,0.41,0.81,0.00,0.00,0.00,L
5.253,25,255,0,255,132,-1.40,4.99,8.51,-0.03,0.03,0.02,-2.60,2.28,9.30,-0.05,0.04,-0.03,-2.89,-1.96,9.48,0.01,0.10,-0.01,-1.40,-1.36,9.58,0.01,0.04,-0.01,-3.36,-5.18,7.23,0.02,0.03,0.01,-0.44,0.41,0.81,0.00,0.00,0.00,L
5.303,26,255,0,255,135,-1.69,4.83,8.61,0.02,0.07,-0.01,-2.74,2.74,9.43,-0.02,0.08,-0.08,-3.40,-1.34,10.01,0.01,0.11,-0.02,-1.52,-0.92,9.87,0.01,0.09,-0.02,-3.99,-5.20,7.99,-0.01,0.08,0.01,-0.42,0.40,0.83,0.00,0.00,0.00,L
5.355,24,255,0,255,134,-1.53,5.24,8.50,-0.02,-0.01,0.01,-2.57,2.61,9.32,-0.05,0.06,-0.03,-2.78,-1.60,9.22,-0.04,0.09,-0.01,-1.59,-1.22,9.29,-0.02,0.06,0.00,-3.95,-5.08,7.26,-0.03,-0.04,-0.01,-0.43,0.41,0.82,0.00,0.00,0.00,L
5.405,25,255,0,255,135,-1.44,4.74,8.35,-0.00,0.05,0.05,-2.68,2.16,9.16,-0.05,0.13,-0.02,-3.13,-1.79,9.42,-0.01,0.14,-0.00,-1.74,-1.20,9.87,0.01,0.10,0.01,-3.48,-5.04,7.34,-0.01,0.06,0.02,-0.43,0.40,0.81,0.00,0.00,0.00,L
5.456,24,255,0,255,136,-1.57,5.21,8.57,0.02,0.05,0.02,-2.69,2.65,9.33,-0.07,0.01,-0.03,-3.49,-1.43,9.95,-0.01,0.02,0.00,-1.65,-0.94,9.74,-0.01,0.02,0.01,-3.67,-5.17,7.80,-0.02,-0.00,0.01,-0.43,0.41,0.83,0.00,0.00,0.00,L
5.507,24,255,255,255,132,-1.58,4.99,8.39,-0.02,0.03,0.02,-2.59,2.49,9.16,-0.06,0.11,-0.08,-3.30,-1.41,9.32,-0.03,0.14,-0.05,-1.80,-0.84,9.94,-0.01,0.09,0.00,-3.83,-5.07,7.67,-0.06,0.04,0.05,-0.43,0.40,0.82,0.00,0.00,0.00,L
5.558,24,255,0,255,134,-1.72,4.97,8.80,-0.01,0.05,0.02,-2.94,2.28,9.48,-0.06,0.06,-0.03,-3.24,-1.82,9.45,-0.01,0.14,-0.02,-1.73,-1.28,9.89,-0.01,0.08,-0.02,-3.65,-5.25,7.73,-0.02,0.05,0.00,-0.44,0.41,0.82,0.00,0.00,0.00,L
5.61,24,255,0,255,134,-1.45,4.98,8.32,0.01,0.04,0.02,-2.99,2.40,9.32,-0.01,0.03,-0.03,-3.23,-1.61,9.37,0.03,0.07,-0.02,-1.71,-1.03,9.61,0.03,0.05,0.00,-3.45,-5.07,7.25,0.00,0.01,0.02,-0.42,0.40,0.82,0.00,0.00,0.00,L
5.66,23,255,0,255,132,-1.58,5.00,8.49,-0.02,0.02,0.00,-2.75,2.48,9.33,-0.04,0.07,-0.03,-3.08,-1.81,9.35,0.00,0.09,-0.01,-1.89,-1.14,10.15,-0.02,0.07,-0.02,-3.54,-5.25,7.39,-0.01,-0.02,-0.02,-0.43,0.41,0.82,0.00,0.00,0.00,L
5.711,24,255,0,255,135,-1.69,5.08,8.64,0.01,0.02,-0.02,-2.68,2.02,8.96,-0.03,0.04,-0.03,-3.30,-1.91,9.47,0.01,0.14,-0.04,-1.81,-1.13,9.70,0.03,0.03,-0.02,-3.61,-5.05,7.22,0.00,0.02,-0.01,-0.43,0.40,0.82,0.00,0.00,0.00,L
5.762,24,255,0,255,132,-1.64,4.88,8.65,0.01,0.03,-0.01,-2.83,2.37,9.30,-0.01,0.04,-0.05,-3.46,-1.58,9.60,0.03,0.07,-0.02,-1.78,-1.04,9.64,0.01,0.00,0.00,-3.75,-5.01,7.58,-0.00,0.02,0.00,-0.43,0.40,0.83,0.00,0.00,0.00,L
5.814,22,255,0,255,134,-1.54,5.05,8.34,0.00,0.03,0.01,-2.92,2.65,9.16,-0.03,0.05,-0.03,-3.41,-1.54,9.45,-0.01,0.06,0.01,-1.69,-1.22,9.77,-0.01,0.05,0.01,-3.70,-5.37,7.45,-0.03,0.02,0.00,-0.43,0.40,0.82,0.00,0.00,0.00,L
5.864,21,255,0,255,135,-1.60,4.83,8.49,-0.01,0.03,-0.03,-2.91,2.37,9.23,-0.02,0.06,-0.06,-3.18,-1.72,9.28,0.01,0.11,-0.03,-1.89,-1.25,9.85,0.01,0.05,-0.02,-3.76,-5.26,7.42,-0.01,0.01,-0.03,-0.44,0.40,0.83,0.00,0.00,0.00,L
5.915,23,255,0,255,135,-1.64,4.93,8.43,0.00,0.01,-0.00,-2.76,2.26,8.94,-0.04,0.01,-0.05,-3.44,-1.68,9.27,0.02,0.12,-0.04,-1.85,-1.08,9.64,0.01,0.06,-0.01,-3.88,-5.00,7.61,-0.01,0.02,-0.01,-0.43,0.40,0.82,0.00,0.00,0.00,L
5.966,23,255,0,255,135,-1.74,5.23,8.51,-0.01,0.00,-0.01,-2.98,2.41,9.31,-0.04,0.03,-0.05,-3.45,-1.66,9.25,-0.02,0.08,-0.06,-2.01,-1.02,9.50,-0.02,0.05,-0.04,-3.89,-5.09,7.54,-0.02,0.04,-0.03,-0.43,0.40,0.83,0.00,0.00,0.00,L
6.018,23,255,0,255,136,-1.56,4.92,8.30,-0.02,0.01,0.02,-2.85,2.08,9.11,-0.05,0.02,-0.01,-3.17,-2.00,9.10,-0.01,0.06,-0.02,-1.96,-1.26,9.69,0.01,0.02,-0.00,-3.65,-5.21,7.28,-0.01,0.01,-0.00,-0.44,0.40,0.82,0.00,0.00,0.00,L
6.069,22,255,0,255,135,-1.58,4.90,8.47,0.02,0.04,0.00,-3.00,2.22,9.29,-0.02,0.04,-0.02,-3.58,-1.80,9.55,0.03,0.11,-0.02,-2.09,-0.97,10.04,0.01,0.08,-0.02,-3.87,-4.98,7.57,0.00,0.01,-0.01,-0.43,0.40,0.83,0.00,0.00,0.00,L
6.119,23,255,0,255,130,-1.70,5.08,8.56,-0.01,0.01,0.01,-2.98,2.38,9.14,-0.06,-0.01,-0.02,-3.58,-1.78,9.40,-0.00,0.02,0.00,-1.86,-1.24,9.63,-0.02,-0.00,0.00,-3.73,-5.36,7.45,-0.03,-0.01,-0.01,-0.43,0.40,0.82,0.00,0.00,0.00,L
6.171,23,255,0,255,135,-1.53,4.82,8.34,0.00,0.02,0.00,-2.87,2.26,9.23,-0.02,0.05,-0.05,-3.54,-1.66,9.44,0.02,0.10,-0.03,-1.91,-1.20,9.71,0.02,0.07,-0.01,-3.78,-5.19,7.48,-0.01,0.06,0.01,-0.44,0.41,0.82,0.00,0.00,0.00,L
6.221,23,255,0,255,136,-1.77,4.87,8.53,-0.02,0.00,-0.01,-2.97,2.14,9.05,-0.02,0.05,-0.04,-3.83,-1.64,9.69,0.02,0.11,-0.03,-2.13,-1.06,9.80,0.01,0.03,-0.02,-3.85,-5.02,7.48,-0.01,0.02,-0.02,-0.43,0.40,0.82,0.00,0.00,0.00,L
6.274,23,255,0,255,136,-1.59,5.05,8.37,-0.01,0.01,0.01,-3.01,2.21,9.26,-0.06,-0.01,-0.02,-3.41,-1.76,9.28,0.00,0.04,-0.02,-1.80,-1.24,9.44,-0.00,0.02,-0.02,-3.63,-5.14,7.24,-0.03,0.02,-0.02,-0.44,0.40,0.82,0.00,0.00,0.00,L
6.324,23,255,0,255,135,-1.60,4.99,8.41,-0.01,0.05,-0.01,-2.97,2.32,9.06,-0.03,0.07,-0.05,-3.78,-1.58,9.45,0.01,0.10,0.00,-2.08,-1.08,9.72,0.01,0.06,0.00,-3.95,-5.14,7.51,-0.01,0.02,0.02,-0.43,0.40,0.83,0.00,0.00,0.00,L
6.376,21,255,0,255,136,-1.73,5.22,8.59,-0.01,0.02,-0.01,-3.11,2.43,9.18,-0.06,0.01,-0.04,-3.67,-1.67,9.35,-0.02,0.03,-0.02,-2.04,-1.11,9.62,-0.03,0.01,0.01,-3.83,-5.27,7.54,-0.04,-0.00,0.00,-0.44,0.40,0.82,0.00,0.00,0.00,L
6.426,23,255,0,255,136,-1.67,4.84,8.44,-0.02,0.02,-0.02,-3.08,2.26,9.22,-0.02,0.05,-0.07,-3.62,-1.75,9.00,0.01,0.12,-0.05,-2.26,-1.05,9.85,0.02,0.05,-0.01,-4.07,-5.14,7.66,0.00,0.02,0.01,-0.44,0.39,0.82,0.00,0.00,0.00,L
6.477,23,255,0,255,136,-1.70,5.01,8.54,-0.01,0.02,0.01,-3.27,2.52,9.29,-0.06,-0.01,-0.02,-3.77,-1.61,9.34,-0.00,0.02,-0.01,-2.01,-1.11,9.51,-0.01,0.01,0.01,-3.69,-5.18,7.24,-0.04,-0.02,-0.00,-0.43,0.39,0.82,0.00,0.00,0.00,L
6.528,23,255,0,255,135,-1.68,4.89,8.60,-0.01,0.01,-0.01,-3.12,2.02,9.20,-0.05,-0.00,-0.02,-3.62,-1.96,9.22,-0.00,0.05,-0.02,-2.10,-1.22,9.69,0.01,0.02,-0.01,-3.91,-5.03,7.42,-0.01,-0.01,0.00,-0.44,0.40,0.82,0.00,0.00,0.00,L
6.578,22,255,0,255,134,-1.81,4.92,8.62,-0.01,0.02,0.01,-3.17,2.31,9.25,-0.04,0.02,-0.04,-3.90,-1.61,9.46,0.00,0.05,-0.02,-2.18,-0.99,9.83,-0.01,0.01,-0.00,-3.91,-5.13,7.57,-0.03,0.03,0.00,-0.44,0.40,0.82,0.00,0.00,0.00,L
6.63,21,255,0,255,135,-1.70,5.07,8.42,-0.01,0.01,-0.00,-3.06,2.07,9.16,-0.05,-0.02,-0.02,-3.77,-1.81,9.26,-0.01,0.02,-0.02,-2.04,-1.12,9.52,-0.00,0.02,-0.01,-4.11,-5.17,7.53,-0.03,0.01,0.00,-0.44,0.40,0.82,0.00,0.00,0.00,L
6.681,23,255,0,255,135,-1.73,5.09,8.54,-0.01,0.02,-0.03,-3.28,2.44,9.36,-0.05,0.01,-0.04,-3.84,-1.60,9.46,-0.01,0.01,-0.01,-2.16,-1.09,9.79,-0.03,-0.01,0.02,-3.90,-5.33,7.57,-0.04,-0.04,-0.01,-0.44,0.39,0.82,0.00,0.00,0.00,L
6.732,22,255,255,255,135,-1.65,4.71,8.51,-0.02,0.03,0.01,-3.02,2.12,9.17,-0.05,0.04,-0.03,-3.44,-1.96,9.02,0.00,0.07,-0.01,-1.88,-1.37,9.41,0.01,0.07,-0.01,-3.72,-5.25,7.36,-0.00,0.08,0.01,-0.44,0.40,0.81,0.00,0.00,0.00,L
6.783,22,255,0,255,135,-1.72,5.01,8.51,0.00,0.04,-0.01,-3.27,2.28,9.24,-0.03,0.04,-0.04,-4.15,-1.62,9.62,0.02,0.05,-0.00,-2.39,-1.05,9.94,0.01,-0.00,0.01,-4.27,-5.27,7.73,-0.01,-0.00,0.01,-0.44,0.39,0.82,0.00,0.00,0.00,L
6.834,21,255,0,255,136,-1.82,4.96,8.60,-0.00,0.00,0.02,-3.09,2.03,9.12,-0.04,-0.05,-0.00,-3.43,-1.87,8.99,0.01,0.00,-0.01,-1.76,-1.29,9.22,0.00,0.00,-0.01,-3.57,-5.02,7.19,-0.01,-0.02,-0.00,-0.44,0.40,0.81,0.00,0.00,0.00,L
6.884,23,255,0,255,138,-1.70,4.98,8.54,-0.00,0.04,0.01,-3.29,2.24,9.38,-0.02,0.06,-0.02,-3.96,-1.86,9.53,0.01,0.05,0.01,-2.34,-1.17,9.85,0.01,0.01,0.01,-3.88,-5.24,7.40,-0.01,-0.01,0.00,-0.44,0.39,0.83,0.00,0.00,0.00,L
6.935,22,255,0,255,134,-1.79,5.04,8.44,0.01,0.01,0.03,-3.02,2.00,9.01,-0.03,-0.01,-0.00,-3.40,-1.86,8.97,0.01,0.01,-0.00,-1.80,-1.19,9.27,0.01,-0.00,0.01,-3.65,-4.92,7.18,-0.01,0.02,0.00,-0.44,0.40,0.82,0.00,0.00,0.00,L
6.986,21,255,0,255,134,-1.71,4.97,8.44,0.01,0.05,-0.03,-3.37,2.26,9.39,-0.01,0.07,-0.06,-3.94,-1.77,9.50,0.01,0.09,-0.02,-2.42,-0.92,10.05,0.01,0.05,-0.01,-4.19,-5.24,7.69,-0.03,0.01,0.03,-0.44,0.39,0.82,0.00,0.00,0.00,L
7.038,23,255,0,255,138,-1.78,4.88,8.51,0.00,0.02,0.03,-3.06,2.04,9.03,-0.04,-0.02,0.00,-3.61,-1.87,8.99,0.01,0.00,-0.01,-1.86,-1.25,9.28,0.00,0.01,-0.01,-3.59,-5.13,7.20,-0.03,0.04,-0.00,-0.43,0.40,0.82,0.00,0.00,0.00,L
7.088,23,255,0,255,135,-1.66,5.07,8.39,0.01,0.04,-0.03,-3.24,2.17,9.21,-0.02,0.03,-0.03,-3.87,-1.81,9.43,0.02,0.07,-0.00,-2.33,-1.15,9.88,0.02,0.03,-0.00,-4.01,-5.24,7.51,-0.00,-0.00,0.01,-0.44,0.39,0.82,0.00,0.00,0.00,L
7.14,22,255,0,255,136,-1.84,4.99,8.44,0.00,0.04,0.02,-3.12,2.22,9.14,-0.03,-0.01,-0.01,-3.70,-1.81,9.21,0.01,0.01,-0.01,-2.00,-1.23,9.45,0.00,-0.02,0.01,-3.66,-5.08,7.22,-0.02,-0.02,0.00,-0.44,0.40,0.82,0.00,0.00,0.00,L
7.191,21,255,0,255,136,-1.74,4.99,8.22,0.05,0.04,-0.00,-3.19,2.09,9.15,-0.02,0.03,-0.03,-3.83,-1.83,9.39,0.02,0.05,-0.01,-2.28,-1.07,9.88,0.01,0.05,-0.01,-4.02,-5.17,7.50,-0.00,0.03,0.02,-0.44,0.39,0.82,0.00,0.00,0.00,L
7.242,21,255,0,255,136,-1.80,5.09,8.46,0.01,0.03,0.00,-3.23,2.35,9.17,-0.04,-0.01,-0.00,-3.75,-1.74,9.19,-0.00,0.00,0.00,-2.08,-1.23,9.58,-0.01,-0.04,0.02,-3.65,-5.20,7.18,-0.03,-0.04,-0.01,-0.44,0.39,0.82,0.00,0.00,0.00,L
7.293,23,255,0,255,136,-1.75,4.89,8.35,0.00,0.04,-0.01,-3.17,2.20,9.12,-0.02,0.03,-0.04,-3.66,-1.76,9.17,0.02,0.08,-0.01,-2.23,-1.24,9.68,0.02,0.08,-0.01,-4.07,-5.27,7.58,-0.01,0.04,0.02,-0.44,0.40,0.82,0.00,0.00,0.00,L
7.344,23,255,0,255,136,-1.81,5.09,8.44,0.02,0.04,0.01,-3.47,2.25,9.31,-0.04,0.00,0.00,-3.91,-1.79,9.35,0.01,-0.01,-0.01,-2.15,-1.06,9.73,-0.00,-0.03,-0.00,-3.74,-5.21,7.21,-0.04,-0.04,-0.00,-0.43,0.39,0.83,0.00,0.00,0.00,L
7.395,23,255,0,255,135,-1.77,4.95,8.29,-0.01,0.01,-0.01,-2.99,2.06,8.96,-0.03,0.01,-0.04,-3.68,-1.83,9.12,0.02,0.06,-0.02,-2.14,-1.14,9.61,0.01,0.05,-0.02,-3.99,-5.26,7.53,-0.02,0.06,0.01,-0.44,0.40,0.82,0.00,0.00,0.00,L
7.446,22,255,0,255,136,-1.79,5.05,8.46,0.00,0.02,-0.00,-3.42,2.31,9.36,-0.02,0.00,-0.02,-3.90,-1.79,9.33,0.01,0.01,-0.01,-2.23,-1.18,9.70,0.00,-0.01,-0.00,-3.94,-5.24,7.36,-0.02,-0.04,-0.00,-0.44,0.39,0.83,0.00,0.00,0.00,L
7.496,20,255,0,255,135,-1.71,4.97,8.33,-0.01,0.02,-0.00,-3.16,2.22,9.10,-0.04,-0.00,-0.01,-3.59,-1.87,9.07,-0.00,0.02,-0.01,-2.00,-1.24,9.38,0.00,0.00,-0.00,-3.75,-5.11,7.18,-0.02,0.01,-0.01,-0.44,0.40,0.82,0.00,0.00,0.00,L
7.547,21,255,255,255,136,-1.81,5.13,8.43,0.00,0.03,-0.02,-3.41,2.42,9.37,-0.04,0.02,-0.03,-3.95,-1.74,9.43,0.00,0.04,-0.00,-2.30,-1.13,9.82,-0.00,0.03,0.00,-3.97,-5.36,7.46,-0.03,-0.00,0.00,-0.44,0.39,0.83,0.00,0.00,0.00,L
7.598,23,255,0,255,138,-1.81,4.84,8.28,-0.01,0.01,0.01,-3.06,2.10,9.04,-0.04,-0.00,-0.02,-3.57,-1.86,8.99,0.00,0.03,-0.01,-2.01,-1.31,9.47,0.01,0.01,0.01,-3.85,-5.26,7.37,0.00,0.04,0.01,-0.44,0.39,0.82,0.00,0.00,0.00,L
7.649,23,255,0,255,138,-1.85,5.08,8.45,-0.00,0.05,-0.01,-3.52,2.38,9.40,-0.03,-0.00,-0.02,-4.02,-1.77,9.53,0.01,0.02,-0.01,-2.28,-1.13,9.72,-0.00,-0.02,0.01,-3.99,-5.35,7.44,-0.01,-0.04,-0.02,-0.44,0.39,0.83,0.00,0.00,0.00,L
7.7,23,255,0,255,136,-1.80,5.11,8.28,0.00,0.00,0.02,-3.06,2.14,9.02,-0.04,-0.02,-0.01,-3.60,-1.85,9.06,0.01,0.02,-0.00,-2.03,-1.26,9.54,0.02,0.00,0.01,-3.67,-5.17,7.13,-0.01,-0.01,0.02,-0.44,0.40,0.82,0.00,0.00,0.00,L
7.751,21,255,0,255,135,-1.83,5.12,8.44,0.00,0.02,0.00,-3.37,2.39,9.27,-0.02,0.01,-0.02,-4.05,-1.71,9.45,0.01,0.01,-0.00,-2.29,-1.08,9.81,0.01,-0.03,0.01,-3.93,-5.31,7.51,-0.02,-0.03,0.01,-0.44,0.39,0.83,0.00,0.00,0.00,L
7.804,21,255,0,255,136,-1.79,5.08,8.45,0.00,0.01,0.00,-3.08,2.24,9.02,-0.03,-0.01,-0.03,-3.57,-1.79,8.99,0.01,0.02,-0.01,-2.05,-1.22,9.44,0.00,0.01,0.01,-3.78,-5.27,7.25,-0.02,-0.01,0.02,-0.44,0.40,0.82,0.00,0.00,0.00,L
7.854,23,255,0,255,139,-1.82,5.09,8.41,0.00,0.03,-0.02,-3.54,2.43,9.41,-0.04,0.00,-0.03,-4.10,-1.76,9.41,0.01,0.02,-0.00,-2.46,-1.10,9.98,0.01,0.00,0.01,-4.22,-5.27,7.73,-0.01,-0.01,0.00,-0.45,0.39,0.83,0.00,0.00,0.00,L
7.905,20,255,0,255,135,-1.79,5.00,8.28,0.01,0.00,0.03,-3.04,2.21,9.01,-0.03,-0.01,-0.01,-3.42,-1.82,8.90,0.02,0.01,-0.01,-1.87,-1.24,9.28,0.01,0.02,-0.01,-3.59,-5.20,7.16,-0.01,0.01,0.02,-0.43,0.40,0.82,0.00,0.00,0.00,L
7.956,21,255,255,255,139,-1.78,5.08,8.45,0.00,0.03,-0.03,-3.39,2.26,9.31,-0.04,-0.01,-0.01,-3.89,-1.92,9.28,0.01,0.01,-0.01,-2.36,-1.26,9.83,0.00,-0.01,-0.00,-4.12,-5.33,7.57,-0.01,-0.04,-0.01,-0.45,0.38,0.83,0.00,0.00,0.00,L
8.009,21,255,0,255,139,-1.85,4.95,8.34,0.00,0.01,0.01,-3.09,2.03,8.98,-0.04,-0.01,-0.00,-3.45,-1.87,8.93,0.02,0.03,-0.01,-1.99,-1.23,9.40,0.02,0.01,-0.00,-3.50,-5.16,7.00,-0.01,-0.00,0.01,-0.43,0.39,0.82,0.00,0.00,0.00,L
8.058,23,255,0,255,136,-1.84,5.19,8.51,-0.01,0.02,-0.01,-3.34,2.21,9.26,-0.03,0.01,-0.02,-4.14,-1.78,9.49,0.01,0.03,-0.01,-2.34,-1.06,9.78,0.02,-0.01,0.01,-3.91,-5.34,7.34,-0.01,-0.02,0.00,-0.44,0.39,0.83,0.00,0.00,0.00,L
8.109,22,255,0,255,136,-1.85,4.98,8.35,-0.01,-0.01,0.02,-3.08,2.18,9.04,-0.03,-0.01,-0.02,-3.62,-1.83,8.97,0.00,0.01,-0.01,-2.03,-1.24,9.37,0.00,-0.01,0.00,-3.77,-5.04,7.24,-0.01,0.00,0.00,-0.44,0.39,0.82,0.00,0.00,0.00,L
8.159,23,255,255,255,136,-1.84,4.96,8.49,-0.02,0.03,-0.02,-3.60,2.45,9.50,-0.03,0.02,-0.04,-4.20,-1.67,9.63,0.00,0.02,-0.01,-2.40,-1.07,9.94,-0.00,0.01,0.01,-4.15,-5.36,7.67,-0.03,-0.00,0.00,-0.44,0.39,0.83,0.00,0.00,0.00,L
8.21,21,255,0,255,139,-1.80,4.84,8.26,-0.02,-0.00,0.02,-3.00,2.06,8.99,-0.04,-0.01,-0.02,-3.57,-1.92,9.06,0.00,0.02,-0.01,-2.06,-1.32,9.44,0.00,0.01,0.00,-3.80,-5.22,7.36,-0.01,0.03,0.02,-0.44,0.40,0.82,0.00,0.00,0.00,L
8.262,21,255,0,255,136,-1.86,5.16,8.35,-0.00,0.02,-0.02,-3.47,2.38,9.31,-0.02,0.01,-0.01,-4.06,-1.82,9.41,0.01,0.02,-0.00,-2.40,-1.23,9.74,0.01,-0.01,0.01,-4.00,-5.33,7.45,0.00,-0.02,-0.01,-0.44,0.39,0.83,0.00,0.00,0.00,L
8.312,22,255,0,255,136,-1.94,4.91,8.46,-0.00,0.00,-0.01,-3.31,2.31,9.23,-0.04,-0.02,-0.06,-3.77,-1.68,9.27,0.00,0.00,-0.02,-2.18,-1.07,9.69,-0.02,-0.01,0.00,-4.03,-5.29,7.60,-0.03,-0.01,-0.01,-0.44,0.40,0.82,0.00,0.00,0.00,L
8.364,23,255,255,255,138,-1.77,5.21,8.28,-0.03,0.00,-0.02,-3.14,2.15,9.11,-0.06,-0.02,-0.04,-3.80,-1.76,9.25,-0.01,0.05,-0.03,-2.35,-1.11,9.77,-0.01,0.03,-0.00,-4.19,-5.32,7.60,-0.03,0.01,0.02,-0.45,0.39,0.82,0.00,0.00,0.00,L
8.415,21,255,0,255,135,-1.99,5.02,8.51,0.00,0.01,0.00,-3.35,2.13,9.26,-0.04,0.00,-0.03,-3.88,-1.89,9.26,0.01,0.01,-0.02,-2.24,-1.20,9.63,0.01,-0.01,-0.00,-3.77,-5.14,7.20,-0.00,-0.00,-0.01,-0.44,0.39,0.82,0.00,0.00,0.00,L
8.465,23,255,0,255,136,-1.89,5.08,8.53,-0.01,0.03,0.01,-3.19,2.23,9.13,-0.04,-0.00,-0.01,-3.85,-1.78,9.27,-0.00,0.01,-0.00,-2.21,-1.24,9.62,-0.01,-0.01,0.00,-4.07,-5.19,7.52,-0.01,-0.01,-0.00,-0.44,0.39,0.82,0.00,0.00,0.00,L
8.516,23,255,0,255,135,-1.85,4.93,8.47,-0.03,0.01,0.01,-3.20,2.20,9.19,-0.04,0.01,-0.01,-3.80,-1.88,9.23,-0.00,0.03,-0.01,-2.24,-1.23,9.60,-0.01,0.00,0.01,-3.89,-5.25,7.33,-0.02,-0.02,0.01,-0.44,0.39,0.82,0.00,0.00,0.00,L
8.568,21,255,0,255,136,-1.84,5.05,8.41,-0.00,0.02,0.01,-3.25,2.08,9.15,-0.03,-0.01,-0.01,-3.85,-1.84,9.20,0.01,0.01,-0.00,-2.11,-1.26,9.60,0.01,-0.00,-0.01,-3.82,-5.27,7.29,-0.01,0.01,-0.00,-0.44,0.39,0.82,0.00,0.00,0.00,L
8.618,20,255,0,255,135,-1.90,5.06,8.41,-0.00,0.00,-0.00,-3.23,2.24,9.26,-0.02,0.02,-0.04,-3.82,-1.71,9.27,0.01,0.04,-0.01,-2.13,-1.18,9.54,0.01,-0.00,0.01,-3.84,-5.27,7.29,-0.02,-0.01,0.01,-0.44,0.39,0.82,0.00,0.00,0.00,L
8.67,22,255,0,255,138,-1.85,5.04,8.43,-0.01,0.01,-0.01,-3.19,2.29,9.18,-0.02,0.01,-0.04,-3.94,-1.76,9.33,0.01,0.01,-0.02,-2.44,-1.07,9.87,-0.00,0.00,0.00,-4.05,-5.22,7.57,-0.02,-0.02,0.01,-0.44,0.39,0.82,0.00,0.00,0.00,L
8.72,22,255,0,255,136,-1.79,5.06,8.32,-0.01,0.01,0.00,-3.22,2.25,9.12,-0.03,0.00,-0.03,-3.77,-1.81,9.12,0.01,0.03,-0.01,-2.14,-1.25,9.56,0.00,0.01,0.01,-3.74,-5.37,7.19,-0.02,0.01,0.02,-0.44,0.39,0.82,0.00,0.00,0.00,L
8.771,21,255,0,255,138,-1.89,4.91,8.41,0.01,0.02,-0.02,-3.30,2.21,9.30,-0.03,0.01,-0.03,-3.97,-1.78,9.33,0.02,0.03,-0.01,-2.40,-1.08,9.71,0.02,0.01,0.01,-3.98,-5.31,7.39,-0.01,-0.01,0.01,-0.44,0.39,0.82,0.00,0.00,0.00,L
8.824,21,255,0,255,135,-1.88,5.08,8.30,-0.01,-0.01,0.00,-3.11,2.20,9.11,-0.03,-0.01,-0.02,-3.56,-1.88,8.96,0.01,0.02,-0.01,-2.12,-1.24,9.54,0.00,0.02,-0.00,-3.76,-5.26,7.39,-0.02,0.02,0.01,-0.44,0.39,0.82,0.00,0.00,0.00,L
8.873,23,255,0,255,136,-1.80,4.98,8.42,-0.00,0.03,-0.01,-3.32,2.21,9.20,-0.01,0.02,-0.02,-3.91,-1.86,9.34,0.03,0.03,-0.00,-2.36,-1.14,9.71,0.02,-0.00,0.01,-3.93,-5.23,7.33,-0.01,-0.02,0.00,-0.44,0.39,0.82,0.00,0.00,0.00,L
8.933,20,255,0,255,136,-1.89,5.07,8.25,-0.01,0.02,0.00,-3.20,2.24,9.12,-0.03,0.02,-0.01,-3.75,-1.88,9.14,0.00,0.05,-0.00,-2.19,-1.29,9.60,0.00,0.02,0.01,-3.78,-5.26,7.15,-0.02,0.02,0.00,-0.44,0.39,0.83,0.00,0.00,0.00,L
8.977,23,255,0,255,135,-1.80,5.16,8.22,-0.01,0.00,-0.02,-3.33,2.26,9.30,-0.02,0.02,-0.04,-4.06,-1.78,9.36,0.01,0.03,-0.01,-2.37,-1.19,9.84,0.01,0.01,0.01,-4.07,-5.39,7.58,-0.01,-0.01,0.03,-0.46,0.39,0.83,0.00,0.00,0.00,L
9.027,22,255,0,255,136,-1.77,5.09,8.24,0.02,-0.01,0.02,-3.05,2.53,9.16,-0.06,-0.04,-0.06,-4.12,-1.39,9.03,0.06,0.01,-0.04,-2.14,-0.88,9.46,0.00,0.05,-0.02,-3.82,-4.93,7.35,-0.03,0.07,0.04,-0.44,0.39,0.82,0.00,0.00,0.00,L
9.08,23,255,0,255,138,-1.96,5.11,8.42,-0.03,0.01,-0.02,-3.45,2.19,9.22,-0.05,0.02,-0.03,-4.02,-1.70,9.31,-0.02,0.01,-0.00,-2.55,-1.11,9.98,-0.03,-0.02,0.01,-4.39,-5.51,7.70,-0.05,-0.03,-0.01,-0.45,0.38,0.83,0.00,0.00,0.00,L
9.132,23,255,0,255,136,-1.84,4.85,8.46,-0.01,-0.01,0.03,-3.06,1.90,9.11,-0.05,-0.03,-0.02,-3.55,-1.92,8.91,0.00,0.02,-0.03,-1.95,-1.13,9.24,0.01,0.02,-0.02,-3.64,-5.03,7.22,-0.00,-0.00,0.01,-0.44,0.40,0.82,0.00,0.00,0.00,L
9.182,27,255,0,255,135,-1.91,5.05,8.40,-0.02,0.04,-0.02,-3.43,2.26,9.18,-0.04,0.03,-0.01,-4.07,-1.90,9.28,-0.00,0.04,0.01,-2.42,-1.29,9.77,0.01,0.01,0.03,-3.87,-5.37,7.26,-0.02,-0.03,0.01,-0.45,0.38,0.83,0.00,0.00,0.00,L
9.231,22,255,0,255,135,-1.95,5.00,8.54,-0.02,-0.00,0.01,-3.17,2.14,9.19,-0.06,-0.03,-0.04,-3.70,-1.84,9.11,-0.01,0.02,-0.03,-2.13,-1.20,9.42,-0.02,-0.00,-0.02,-3.71,-5.19,7.12,-0.04,0.03,-0.02,-0.44,0.39,0.81,0.00,0.00,0.00,L
9.283,21,255,0,255,136,-1.90,4.80,8.26,-0.03,0.02,-0.05,-3.41,2.07,9.15,-0.02,0.06,-0.07,-3.50,-2.53,7.47,0.04,0.11,-0.04,-3.19,-0.78,11.04,0.01,0.14,-0.01,-3.94,-5.16,7.58,0.03,-0.03,0.01,-0.44,0.38,0.82,0.00,0.00,0.00,L
9.335,23,255,0,255,134,-1.92,5.21,8.29,0.07,0.03,-0.02,-3.49,2.30,9.39,-0.11,-0.09,0.02,-3.58,-2.01,8.86,-0.01,-0.01,-0.03,-1.96,-1.61,9.15,-0.05,-0.02,-0.01,-3.62,-5.19,6.78,-0.05,0.03,-0.01,-0.44,0.39,0.81,0.00,0.00,0.00,L
9.387,22,255,0,255,136,-1.91,4.91,8.33,-0.01,0.04,-0.02,-3.18,1.86,9.05,-0.02,0.04,-0.02,-4.02,-1.95,9.24,0.02,0.06,-0.01,-2.50,-1.37,9.86,0.01,0.01,-0.00,-4.11,-5.64,7.61,-0.01,0.01,0.00,-0.45,0.38,0.82,0.00,0.00,0.00,L
9.437,24,255,0,255,136,-1.83,5.23,8.28,0.01,0.03,0.03,-3.27,2.38,9.15,-0.03,-0.02,0.00,-3.68,-1.84,9.05,-0.01,-0.03,0.01,-2.05,-1.31,9.34,-0.01,-0.03,0.01,-3.81,-5.17,7.18,-0.01,-0.03,-0.01,-0.44,0.39,0.82,0.00,0.00,0.00,L
9.485,22,255,0,255,139,-1.92,4.97,8.27,-0.01,0.03,-0.01,-3.29,2.03,9.07,-0.04,0.02,-0.04,-3.85,-2.00,9.05,0.00,0.06,-0.01,-2.56,-1.30,9.84,-0.00,0.03,-0.01,-4.00,-5.43,7.32,-0.01,0.02,-0.02,-0.45,0.39,0.82,0.00,0.00,0.00,L
9.539,22,255,0,255,136,-1.89,5.08,8.53,-0.02,-0.02,0.00,-3.47,2.32,9.42,-0.07,-0.05,-0.03,-3.95,-1.81,9.18,-0.02,-0.01,-0.03,-2.27,-1.24,9.62,-0.03,-0.02,-0.01,-3.89,-5.20,7.33,-0.04,-0.04,-0.03,-0.45,0.39,0.82,0.00,0.00,0.00,L
9.59,23,255,0,255,135,-1.84,4.82,8.25,-0.02,0.03,-0.01,-3.17,1.98,9.05,-0.03,0.03,-0.05,-3.84,-2.00,9.05,0.01,0.09,-0.02,-2.44,-1.23,9.76,-0.00,0.09,-0.02,-3.85,-5.24,8.58,-0.08,0.18,-0.04,-0.45,0.39,0.82,0.00,0.00,0.00,L
9.639,21,255,0,255,135,-1.96,5.03,8.46,-0.03,0.02,-0.00,-3.47,2.34,9.33,-0.05,-0.00,-0.02,-4.00,-1.99,9.11,-0.03,-0.01,-0.00,-2.35,-1.40,9.56,-0.03,-0.01,-0.01,-4.10,-5.28,7.30,-0.04,-0.01,-0.03,-0.45,0.39,0.82,0.00,0.00,0.00,L
9.689,22,255,0,255,136,-1.81,4.77,8.11,-0.01,0.01,-0.00,-3.26,1.90,9.15,-0.02,0.03,-0.03,-3.84,-2.07,9.05,0.02,0.06,-0.02,-2.22,-1.42,9.57,0.03,0.03,-0.01,-4.11,-5.49,7.48,0.01,0.03,0.02,-0.45,0.39,0.82,0.00,0.00,0.00,L
9.741,23,255,0,255,135,-1.82,4.98,8.40,0.01,0.02,0.01,-3.26,2.12,9.15,-0.02,0.01,-0.02,-3.96,-1.82,9.19,0.01,0.04,-0.02,-2.30,-1.21,9.48,-0.01,0.03,-0.01,-3.84,-5.21,7.11,-0.03,0.03,0.01,-0.44,0.39,0.82,0.00,0.00,0.00,L
9.793,21,255,0,255,135,-2.09,4.89,8.49,-0.02,0.02,-0.01,-3.43,1.96,9.16,-0.05,0.04,-0.04,-3.98,-2.19,9.00,0.00,0.06,-0.03,-2.36,-1.44,9.50,0.00,0.04,-0.03,-3.87,-5.30,7.17,-0.01,0.01,-0.02,-0.45,0.39,0.82,0.00,0.00,0.00,L
9.843,23,255,0,255,139,-1.89,5.16,8.36,0.00,0.02,-0.01,-3.30,2.05,8.84,-0.06,0.07,-0.06,-3.99,-1.90,9.32,-0.00,0.05,-0.00,-2.70,-1.07,10.08,-0.02,0.04,-0.01,-4.25,-5.40,7.58,-0.03,-0.02,-0.02,-0.45,0.39,0.83,0.00,0.00,0.00,L
9.895,23,255,0,255,134,-1.78,4.96,8.09,-0.03,0.01,0.03,-2.90,1.98,8.61,-0.06,-0.04,0.02,-3.46,-1.97,8.56,-0.01,-0.02,0.02,-2.10,-1.44,9.15,-0.03,0.01,0.02,-3.62,-5.26,6.90,-0.04,0.02,0.03,-0.45,0.39,0.81,0.00,0.00,0.00,L
9.945,21,255,0,255,138,-1.99,4.76,8.57,-0.04,0.04,-0.04,-3.60,1.78,9.31,-0.03,0.06,-0.07,-4.30,-2.21,9.28,0.01,0.10,-0.03,-2.79,-1.35,9.95,-0.00,0.07,-0.01,-4.31,-5.47,7.57,0.01,0.02,-0.01,-0.47,0.38,0.82,0.00,0.00,0.00,L
9.999,23,255,0,255,136,-1.88,5.24,8.34,0.02,0.03,0.03,-3.44,2.29,9.35,-0.03,-0.01,-0.00,-3.67,-1.92,8.89,0.01,0.01,-0.01,-2.02,-1.35,9.18,0.01,-0.01,0.01,-3.52,-5.09,6.85,-0.01,0.00,-0.00,-0.44,0.40,0.82,0.00,0.00,0.00,L
10.048,22,255,0,255,134,-1.97,4.92,8.30,-0.00,0.06,-0.05,-3.35,1.97,8.94,-0.01,0.10,-0.06,-4.06,-1.97,9.05,0.01,0.16,-0.01,-2.45,-1.46,8.99,0.00,0.17,-0.01,-4.58,-5.70,6.48,-0.05,0.14,0.03,-0.46,0.38,0.82,0.00,0.00,0.00,L
10.101,22,255,0,255,136,-1.89,5.16,8.47,-0.02,-0.01,-0.01,-3.75,2.15,9.46,-0.05,-0.01,-0.03,-3.90,-2.23,8.97,0.01,0.01,-0.02,-2.28,-1.64,9.42,-0.00,-0.01,-0.01,-3.31,-5.40,7.20,0.06,-0.01,-0.01,-0.47,0.39,0.81,0.00,0.00,0.00,L
10.151,23,255,0,255,138,-1.88,4.83,8.20,0.05,0.06,-0.00,-3.39,2.12,9.07,0.02,0.06,-0.05,-3.96,-1.69,9.20,0.04,0.11,-0.04,-2.44,-0.92,9.87,0.02,0.11,-0.03,-4.13,-5.15,6.96,0.07,0.29,0.06,-0.43,0.38,0.83,0.00,0.00,0.00,L
10.203,21,255,0,255,135,-2.23,5.31,8.76,-0.02,0.05,-0.00,-3.86,2.38,9.46,-0.07,0.05,-0.02,-4.63,-1.89,9.45,-0.05,0.04,0.01,-2.63,-1.50,9.82,-0.04,0.00,0.02,-4.07,-5.58,7.24,-0.05,0.00,-0.04,-0.46,0.38,0.83,0.00,0.00,0.00,L
10.255,21,255,0,255,136,-1.76,4.30,8.08,-0.02,-0.02,0.03,-3.05,1.31,8.77,-0.02,-0.00,-0.03,-3.75,-2.30,8.84,0.04,0.06,-0.02,-2.30,-1.44,9.36,0.05,0.06,-0.01,-4.11,-5.32,7.17,0.06,0.05,0.05,-0.47,0.40,0.81,0.00,0.00,0.00,L
10.306,23,255,0,255,136,-1.94,5.41,8.17,0.06,0.06,0.00,-3.76,2.62,9.23,0.02,0.01,-0.01,-4.31,-1.48,9.19,0.04,0.04,0.01,-2.57,-1.03,9.53,0.01,0.00,0.02,-4.23,-5.06,7.13,-0.02,-0.03,-0.00,-0.43,0.37,0.84,0.00,0.00,0.00,L
10.357,23,255,0,255,138,-2.09,4.85,8.49,-0.05,-0.00,0.02,-3.29,1.73,8.75,-0.10,0.02,-0.07,-4.16,-2.35,8.38,-0.04,0.11,-0.08,-2.71,-1.82,9.57,-0.03,0.06,-0.04,-4.04,-5.51,7.05,0.00,0.07,-0.03,-0.48,0.38,0.81,0.00,0.00,0.00,L
10.41,21,255,255,255,138,-1.74,4.77,8.29,0.05,0.01,0.00,-3.67,2.18,9.42,0.03,0.02,-0.07,-4.29,-1.89,9.17,0.05,0.04,-0.07,-2.56,-1.32,9.58,0.06,-0.00,-0.05,-4.30,-5.06,7.31,0.10,-0.03,-0.02,-0.45,0.38,0.83,0.00,0.00,0.00,L
10.456,23,255,0,255,135,-2.03,5.17,8.36,0.05,0.01,0.03,-3.24,2.10,8.74,-0.01,-0.02,-0.04,-3.84,-1.76,8.71,0.01,0.04,-0.05,-2.31,-1.16,9.16,-0.01,0.04,-0.05,-4.19,-4.97,7.03,-0.00,0.08,-0.02,-0.43,0.38,0.82,0.00,0.00,0.00,L
10.508,24,255,0,255,136,-1.94,4.91,8.39,-0.03,0.00,0.02,-3.67,2.14,9.74,-0.02,0.11,-0.05,-4.20,-2.25,8.56,-0.05,0.12,-0.07,-2.91,-1.68,9.85,-0.04,0.04,-0.03,-4.52,-5.56,7.47,-0.03,0.03,-0.06,-0.46,0.38,0.82,0.00,0.00,0.00,L
10.557,23,255,0,255,138,-1.87,4.76,8.23,0.01,0.00,0.04,-3.66,1.84,9.24,-0.02,0.02,-0.03,-3.96,-2.30,9.13,0.03,0.04,-0.05,-2.61,-1.68,9.45,0.04,0.03,-0.04,-4.15,-5.22,7.17,0.06,0.02,-0.02,-0.45,0.39,0.82,0.00,0.00,0.00,L
10.607,21,255,0,255,138,-1.92,5.27,8.17,0.07,0.04,0.02,-3.63,2.30,9.02,0.07,0.13,-0.07,-4.40,-1.63,9.33,0.03,0.10,-0.02,-2.49,-1.09,9.50,-0.03,0.11,-0.03,-4.47,-5.06,7.10,0.01,0.07,0.04,-0.43,0.38,0.83,0.00,0.00,0.00,L
10.66,23,255,0,255,136,-2.11,5.08,8.39,-0.04,-0.00,0.03,-3.68,1.70,8.57,-0.12,0.03,-0.06,-4.31,-2.26,8.90,-0.04,0.02,-0.03,-2.48,-1.64,9.23,-0.03,0.00,-0.03,-4.13,-5.32,7.02,-0.05,-0.01,-0.02,-0.46,0.38,0.81,0.00,0.00,0.00,L
10.711,23,255,0,255,135,-1.88,5.04,8.25,0.02,-0.00,-0.02,-3.62,1.72,9.02,0.00,0.02,-0.08,-4.34,-2.17,9.18,0.03,0.11,-0.07,-2.64,-1.26,9.43,0.04,0.04,-0.05,-4.51,-5.11,7.53,0.04,0.05,0.01,-0.45,0.38,0.82,0.00,0.00,0.00,L
10.761,21,255,0,255,139,-2.00,5.28,8.39,0.03,0.02,0.01,-3.88,2.24,9.22,-0.01,0.01,-0.01,-4.29,-1.89,9.02,0.00,0.02,-0.01,-2.59,-1.26,9.36,-0.00,0.02,-0.01,-4.17,-5.07,7.12,-0.02,-0.01,-0.01,-0.43,0.38,0.83,0.00,0.00,0.00,L
10.813,23,255,0,255,138,-1.96,5.02,8.22,-0.04,-0.00,0.01,-3.63,1.73,8.93,-0.06,0.04,-0.04,-4.28,-2.27,8.54,-0.03,0.11,-0.04,-2.66,-1.77,9.60,-0.01,0.08,-0.01,-4.17,-5.41,7.05,-0.02,0.03,-0.01,-0.46,0.38,0.82,0.00,0.00,0.00,L
10.864,23,255,0,255,139,-2.02,5.16,8.48,0.02,0.01,0.02,-3.90,2.12,9.26,-0.03,0.04,-0.06,-4.49,-2.06,9.11,0.05,0.05,-0.03,-2.82,-1.40,9.86,0.01,0.02,-0.04,-4.43,-5.07,7.47,0.01,-0.01,-0.01,-0.45,0.38,0.83,0.00,0.00,0.00,L
10.915,23,255,0,255,138,-1.87,5.35,8.23,0.01,-0.00,0.01,-3.65,2.15,8.99,-0.04,-0.00,-0.01,-4.18,-1.98,8.77,-0.01,0.02,-0.01,-2.45,-1.37,9.19,-0.01,0.01,-0.01,-4.12,-5.13,7.04,-0.05,0.05,0.00,-0.44,0.39,0.82,0.00,0.00,0.00,L
10.968,23,255,0,255,138,-1.90,4.99,8.26,-0.03,0.01,0.00,-3.87,1.95,8.98,-0.06,0.06,-0.04,-4.87,-2.03,9.41,-0.00,0.06,-0.00,-2.98,-1.57,9.63,0.01,0.03,0.00,-4.58,-5.47,7.35,-0.03,0.03,0.02,-0.45,0.38,0.82,0.00,0.00,0.00,L
11.018,23,255,0,255,136,-1.99,5.02,8.36,0.01,0.00,0.01,-3.76,1.86,9.10,-0.04,-0.02,-0.02,-4.31,-2.19,8.83,0.04,0.02,-0.01,-2.60,-1.52,9.29,0.02,-0.00,-0.01,-4.30,-5.25,7.15,-0.01,-0.04,-0.00,-0.45,0.38,0.82,0.00,0.00,0.00,L
11.07,21,255,0,255,139,-1.95,5.06,8.44,0.00,0.02,0.00,-3.88,1.97,9.20,-0.02,0.04,-0.04,-4.76,-2.08,9.41,0.01,0.06,-0.02,-2.78,-1.40,9.53,0.01,0.04,-0.02,-4.29,-5.22,7.20,-0.02,0.01,0.00,-0.45,0.38,0.82,0.00,0.00,0.00,L
11.123,23,255,0,255,141,-1.94,5.10,8.38,0.01,0.01,0.00,-3.88,1.89,8.99,-0.03,-0.01,-0.01,-4.28,-2.18,8.82,0.01,0.00,-0.01,-2.72,-1.53,9.37,0.01,-0.01,-0.00,-4.18,-5.18,7.10,-0.02,-0.02,-0.00,-0.45,0.38,0.82,0.00,0.00,0.00,L
11.173,23,255,0,255,138,-1.99,4.98,8.35,-0.01,0.02,-0.00,-3.78,1.89,9.05,-0.02,0.02,-0.03,-4.39,-2.26,8.95,0.01,0.06,-0.02,-2.99,-1.39,9.63,0.00,0.03,-0.02,-4.40,-5.25,7.22,-0.01,0.00,-0.01,-0.45,0.38,0.82,0.00,0.00,0.00,L
11.221,22,255,0,255,138,-1.97,5.08,8.35,0.00,0.01,0.02,-3.72,1.85,9.11,-0.03,0.01,-0.01,-4.34,-2.19,8.91,0.02,0.01,-0.01,-2.45,-1.51,9.16,0.02,-0.01,-0.00,-4.07,-5.04,6.99,-0.01,-0.01,-0.00,-0.44,0.39,0.82,0.00,0.00,0.00,L
11.27,22,255,0,255,138,-1.93,5.05,8.30,-0.01,0.03,-0.01,-3.68,1.77,8.94,-0.02,0.05,-0.03,-4.35,-2.20,8.85,0.02,0.08,-0.01,-2.84,-1.52,9.44,0.01,0.06,-0.01,-4.26,-5.21,7.06,-0.01,0.05,0.01,-0.44,0.38,0.82,0.00,0.00,0.00,L
11.324,23,255,0,255,138,-2.03,5.18,8.40,-0.01,0.01,0.01,-3.95,1.97,9.18,-0.03,0.01,0.00,-4.38,-2.31,8.96,0.01,0.00,0.01,-2.59,-1.70,9.28,0.01,-0.02,0.02,-3.92,-5.28,6.76,-0.01,-0.03,-0.01,-0.45,0.38,0.82,0.00,0.00,0.00,L
11.372,21,255,0,255,138,-1.83,5.12,8.08,-0.00,0.01,-0.01,-3.64,2.01,8.85,-0.01,0.02,-0.03,-4.29,-2.04,8.78,0.03,0.06,-0.00,-2.91,-1.36,9.49,0.02,0.03,0.01,-4.22,-5.21,7.14,-0.00,0.04,0.03,-0.45,0.38,0.82,0.00,0.00,0.00,L
11.425,23,255,0,255,138,-1.98,5.22,8.35,0.00,0.02,-0.01,-4.07,2.24,9.13,-0.04,-0.00,-0.02,-4.60,-1.93,9.04,-0.00,0.01,-0.01,-2.99,-1.23,9.63,-0.01,-0.02,0.01,-4.46,-5.25,7.38,-0.03,-0.06,-0.00,-0.45,0.37,0.83,0.00,0.00,0.00,L
11.475,22,255,0,255,138,-1.92,4.98,8.30,-0.02,0.01,0.01,-3.54,1.74,8.94,-0.03,0.01,-0.02,-4.20,-2.27,8.71,0.01,0.06,-0.02,-2.74,-1.57,9.35,0.01,0.05,-0.01,-4.25,-5.30,7.13,-0.01,0.02,0.02,-0.45,0.39,0.82,0.00,0.00,0.00,L
11.525,24,255,0,255,138,-2.05,5.19,8.37,0.01,0.02,-0.01,-3.94,2.06,9.02,-0.02,0.01,-0.03,-4.68,-1.96,9.03,0.02,0.01,-0.01,-2.97,-1.34,9.65,0.00,-0.01,0.00,-4.38,-5.27,7.24,-0.01,-0.03,-0.01,-0.44,0.38,0.83,0.00,0.00,0.00,L
11.577,23,255,0,255,139,-1.95,4.99,8.17,-0.00,0.01,0.01,-3.64,1.91,8.85,-0.03,0.01,-0.01,-4.18,-2.17,8.71,0.01,0.05,0.01,-2.68,-1.58,9.30,0.01,0.03,0.01,-4.19,-5.33,7.10,-0.01,0.02,0.03,-0.45,0.39,0.82,0.00,0.00,0.00,L
11.627,22,255,0,255,136,-1.89,5.11,8.28,-0.01,0.01,-0.01,-3.87,2.09,9.18,-0.02,0.01,-0.02,-4.61,-2.12,8.96,0.01,0.04,-0.01,-2.95,-1.39,9.62,0.00,0.01,0.00,-4.40,-5.24,7.22,-0.02,-0.01,0.02,-0.45,0.37,0.83,0.00,0.00,0.00,L
11.679,21,255,0,255,136,-2.02,5.12,8.26,-0.01,0.01,0.01,-3.79,1.90,8.93,-0.03,0.01,-0.01,-4.41,-2.17,8.76,0.01,0.03,-0.02,-2.81,-1.55,9.36,-0.00,0.01,-0.00,-4.24,-5.26,7.18,-0.02,0.01,-0.00,-0.44,0.38,0.82,0.00,0.00,0.00,L
11.731,23,255,0,255,141,-1.89,4.98,8.25,-0.00,0.01,-0.01,-3.80,1.89,9.02,-0.03,-0.01,-0.02,-4.44,-2.15,8.85,0.02,0.03,-0.02,-2.88,-1.38,9.59,0.01,0.01,-0.01,-4.36,-5.23,7.20,-0.01,-0.02,0.00,-0.45,0.38,0.83,0.00,0.00,0.00,L
11.781,22,255,0,255,136,-1.91,5.22,8.19,-0.01,-0.01,0.00,-3.75,1.99,8.95,-0.05,-0.00,-0.01,-4.33,-2.15,8.73,-0.00,0.01,-0.00,-2.63,-1.48,9.14,-0.01,0.00,-0.00,-4.03,-5.26,6.75,-0.04,0.02,-0.01,-0.44,0.38,0.82,0.00,0.00,0.00,L
11.832,23,255,0,255,136,-1.94,5.08,8.31,-0.02,0.00,-0.03,-3.88,1.86,9.02,-0.04,0.01,-0.04,-4.62,-2.18,8.99,0.00,0.04,-0.01,-2.92,-1.62,9.53,0.00,0.01,0.00,-4.41,-5.37,7.24,0.00,-0.01,-0.00,-0.46,0.38,0.83,0.00,0.00,0.00,L
11.883,22,255,0,255,136,-1.89,5.15,8.09,0.01,0.00,0.01,-3.70,2.02,8.89,-0.02,-0.01,-0.02,-4.39,-2.05,8.75,0.02,0.02,0.00,-2.75,-1.38,9.34,0.02,-0.00,0.01,-4.20,-5.11,7.06,-0.01,-0.02,0.01,-0.44,0.38,0.83,0.00,0.00,0.00,L
11.933,21,255,0,255,138,-2.02,5.15,8.32,-0.00,0.00,-0.01,-3.76,1.81,8.91,-0.03,0.01,-0.04,-4.47,-2.15,8.87,0.01,0.04,-0.03,-2.94,-1.45,9.51,0.01,0.03,-0.02,-4.43,-5.31,7.20,-0.01,0.02,-0.01,-0.45,0.38,0.83,0.00,0.00,0.00,L
11.986,22,255,0,255,139,-1.94,5.13,8.31,0.00,0.01,0.02,-3.91,1.87,9.08,-0.03,-0.03,0.01,-4.41,-2.26,8.77,0.02,-0.00,-0.01,-2.72,-1.63,9.22,0.01,-0.02,0.00,-4.02,-5.17,6.88,-0.01,-0.03,-0.00,-0.45,0.38,0.82,0.00,0.00,0.00,L
12.036,23,255,0,255,138,-1.93,5.28,8.18,-0.00,-0.00,-0.01,-3.84,2.08,9.00,-0.02,0.01,-0.03,-4.61,-2.07,8.94,0.01,0.02,-0.01,-2.96,-1.34,9.52,0.01,0.02,-0.01,-4.38,-5.25,7.22,-0.01,0.02,0.01,-0.45,0.38,0.83,0.00,0.00,0.00,L
12.089,23,255,0,255,138,-1.97,5.20,8.36,-0.01,-0.00,0.00,-3.92,2.03,9.11,-0.05,-0.03,-0.01,-4.51,-2.09,8.92,-0.01,-0.01,-0.01,-2.83,-1.57,9.38,-0.02,-0.03,0.02,-4.18,-5.32,7.04,-0.04,-0.05,-0.01,-0.45,0.38,0.82,0.00,0.00,0.00,L
12.14,21,255,0,255,139,-1.90,4.90,8.28,-0.02,0.01,-0.01,-3.71,1.83,8.87,-0.02,0.02,-0.04,-4.50,-2.16,8.74,0.01,0.05,-0.01,-2.92,-1.54,9.47,0.02,0.03,0.01,-4.44,-5.33,7.33,0.00,0.02,0.02,-0.45,0.38,0.82,0.00,0.00,0.00,L
12.189,22,255,0,255,139,-2.01,5.13,8.37,0.01,0.00,-0.00,-3.96,2.06,9.19,-0.02,-0.03,-0.03,-4.71,-1.95,8.97,0.01,-0.01,-0.03,-2.99,-1.26,9.50,0.00,-0.04,0.00,-4.50,-5.10,7.26,-0.01,-0.03,-0.01,-0.44,0.37,0.83,0.00,0.00,0.00,L
12.242,23,255,0,255,139,-1.98,5.05,8.22,-0.02,0.01,0.00,-3.84,1.69,8.95,-0.03,0.00,-0.03,-4.41,-2.23,8.78,0.00,0.03,-0.02,-2.74,-1.61,9.31,0.00,0.03,-0.02,-4.33,-5.31,7.19,-0.03,0.05,0.00,-0.45,0.38,0.82,0.00,0.00,0.00,L
12.293,21,255,0,255,142,-1.95,5.16,8.37,0.00,0.01,-0.01,-4.01,2.00,9.17,-0.02,-0.01,-0.01,-4.62,-2.20,8.97,0.01,-0.01,-0.01,-2.96,-1.53,9.48,0.00,-0.05,0.01,-4.29,-5.29,7.17,0.00,-0.05,-0.02,-0.45,0.38,0.83,0.00,0.00,0.00,L
12.345,22,255,0,255,138,-1.99,5.04,8.28,-0.00,0.01,0.01,-3.65,1.84,8.87,-0.03,-0.01,-0.01,-4.24,-2.21,8.65,0.01,0.01,-0.01,-2.60,-1.59,9.15,0.01,0.01,0.00,-4.11,-5.25,6.96,-0.02,0.02,0.00,-0.44,0.38,0.82,0.00,0.00,0.00,L
12.394,23,255,0,255,138,-1.94,5.23,8.34,-0.01,0.00,-0.02,-4.01,2.10,9.22,-0.02,0.01,-0.04,-4.78,-1.94,9.19,0.00,0.01,-0.02,-3.10,-1.37,9.73,0.00,-0.04,0.02,-4.37,-5.33,7.22,-0.02,-0.05,-0.00,-0.45,0.38,0.83,0.00,0.00,0.00,L
12.445,23,255,0,255,138,-1.96,5.05,8.34,-0.01,-0.01,0.01,-3.58,1.74,8.89,-0.04,-0.02,-0.02,-4.20,-2.24,8.69,0.01,0.03,-0.02,-2.65,-1.61,9.19,0.00,0.01,-0.01,-4.19,-5.20,7.13,-0.01,0.03,0.00,-0.45,0.38,0.82,0.00,0.00,0.00,L
12.495,22,255,0,255,136,-2.05,5.25,8.41,-0.00,0.01,-0.02,-4.08,2.15,9.18,-0.02,0.02,-0.03,-4.81,-2.07,9.19,0.01,0.01,-0.01,-3.04,-1.42,9.60,-0.00,-0.03,0.01,-4.35,-5.26,7.17,-0.02,-0.05,-0.01,-0.45,0.37,0.83,0.00,0.00,0.00,L
12.546,20,255,0,255,138,-1.95,5.16,8.30,-0.01,-0.01,0.00,-3.62,1.89,8.90,-0.04,-0.00,-0.04,-4.30,-2.06,8.75,0.00,0.03,-0.02,-2.71,-1.47,9.35,0.00,0.02,0.00,-4.28,-5.22,7.18,-0.02,0.01,0.03,-0.45,0.39,0.82,0.00,0.00,0.00,L
12.596,20,255,0,255,138,-2.05,5.27,8.51,0.01,0.01,-0.02,-4.10,2.04,9.28,-0.03,-0.02,-0.04,-4.68,-2.13,9.04,0.00,-0.00,-0.03,-2.99,-1.39,9.62,-0.00,-0.03,-0.01,-4.50,-5.28,7.40,-0.01,-0.04,-0.03,-0.45,0.37,0.83,0.00,0.00,0.00,L
12.647,20,255,0,255,138,-1.97,5.09,8.37,-0.00,0.00,0.01,-3.66,1.77,8.90,-0.03,0.00,-0.02,-4.15,-2.29,8.62,0.01,0.03,-0.02,-2.63,-1.55,9.22,0.01,0.02,-0.02,-4.18,-5.20,7.02,-0.02,0.01,0.01,-0.44,0.39,0.82,0.00,0.00,0.00,L
12.699,21,255,0,255,138,-1.99,5.20,8.51,-0.02,0.02,-0.02,-4.12,2.11,9.35,-0.05,0.00,-0.03,-4.68,-2.18,9.08,-0.01,0.02,-0.02,-2.95,-1.54,9.55,-0.02,-0.02,-0.00,-4.34,-5.35,7.22,-0.03,-0.04,-0.03,-0.45,0.38,0.82,0.00,0.00,0.00,L
12.749,21,255,0,255,136,-1.92,4.99,8.23,-0.01,0.01,-0.01,-3.60,1.72,8.74,-0.04,0.01,-0.02,-4.19,-2.30,8.72,0.01,0.04,-0.00,-2.79,-1.54,9.39,0.02,0.02,0.01,-4.21,-5.23,6.92,-0.01,0.01,0.02,-0.45,0.38,0.82,0.00,0.00,0.00,L
12.801,21,255,0,255,138,-2.09,5.12,8.41,0.00,0.02,-0.01,-3.99,1.94,9.16,-0.02,0.00,-0.03,-4.71,-1.99,9.00,0.01,0.00,-0.02,-3.01,-1.32,9.62,0.00,-0.03,0.00,-4.48,-5.25,7.29,-0.02,-0.02,-0.01,-0.45,0.37,0.83,0.00,0.00,0.00,L
12.851,21,255,0,255,138,-1.93,4.99,8.31,-0.01,0.00,0.01,-3.60,1.71,8.90,-0.03,-0.01,-0.03,-4.22,-2.07,8.72,0.02,0.04,-0.02,-2.69,-1.49,9.29,0.00,0.02,0.00,-4.25,-5.21,7.15,-0.02,0.03,0.02,-0.45,0.39,0.82,0.00,0.00,0.00,L
12.902,22,255,0,255,139,-1.98,5.23,8.43,-0.01,0.02,-0.00,-4.00,1.97,9.13,-0.03,0.00,-0.02,-4.66,-2.14,9.00,0.00,0.00,-0.01,-2.98,-1.48,9.55,-0.00,-0.02,0.01,-4.32,-5.28,7.19,-0.02,-0.04,-0.01,-0.45,0.38,0.83,0.00,0.00,0.00,L
12.953,22,255,0,255,138,-1.92,5.13,8.24,-0.01,-0.00,0.02,-3.73,1.91,9.01,-0.04,-0.01,-0.02,-4.25,-2.21,8.78,0.01,0.04,-0.01,-2.62,-1.47,9.27,0.00,0.02,-0.01,-4.18,-5.23,7.05,-0.03,0.02,0.02,-0.45,0.39,0.82,0.00,0.00,0.00,L
13.004,23,255,0,255,135,-1.94,5.19,8.27,0.00,0.02,-0.03,-4.00,2.07,9.18,-0.03,0.00,-0.02,-4.58,-2.19,8.95,0.00,0.02,-0.01,-2.97,-1.47,9.61,0.00,-0.01,0.01,-4.39,-5.32,7.30,-0.01,-0.04,-0.01,-0.45,0.38,0.83,0.00,0.00,0.00,L
13.056,21,255,0,255,138,-1.92,5.06,8.26,-0.01,-0.00,0.01,-3.55,1.73,8.81,-0.04,-0.02,-0.02,-4.26,-2.26,8.71,0.02,0.03,-0.01,-2.66,-1.59,9.28,0.01,0.02,-0.00,-4.11,-5.25,6.98,-0.01,0.03,0.01,-0.45,0.39,0.82,0.00,0.00,0.00,L
13.111,23,255,0,255,141,-1.91,5.12,8.29,0.00,0.02,-0.02,-3.91,2.06,9.05,-0.02,0.02,-0.03,-4.68,-2.04,9.10,0.03,0.02,0.00,-3.11,-1.38,9.71,0.01,-0.00,0.01,-4.62,-5.30,7.50,-0.01,-0.02,0.00,-0.45,0.37,0.83,0.00,0.00,0.00,L
13.158,21,255,0,255,138,-1.90,5.25,8.27,0.01,-0.01,0.01,-3.68,1.85,8.95,-0.03,-0.02,-0.03,-4.24,-2.15,8.66,0.01,0.02,-0.02,-2.63,-1.49,9.21,-0.00,0.02,-0.01,-4.20,-5.25,7.05,-0.03,0.03,0.01,-0.45,0.39,0.82,0.00,0.00,0.00,L
13.208,24,255,255,255,136,-1.96,4.99,8.35,0.01,0.03,-0.01,-4.01,1.92,9.11,-0.02,0.01,-0.01,-4.68,-2.20,9.01,0.02,0.02,-0.00,-3.09,-1.47,9.71,0.01,-0.01,0.00,-4.57,-5.33,7.42,-0.01,-0.03,-0.01,-0.45,0.38,0.83,0.00,0.00,0.00,L
13.259,20,255,0,255,139,-1.95,5.23,8.19,-0.01,-0.01,0.04,-3.73,2.06,8.91,-0.04,-0.04,0.00,-4.25,-2.19,8.66,0.00,-0.01,0.00,-2.60,-1.60,9.26,-0.00,-0.01,0.00,-4.06,-5.27,6.98,-0.02,-0.01,-0.01,-0.45,0.39,0.82,0.00,0.00,0.00,L
13.31,23,255,0,255,138,-1.90,5.02,8.23,-0.01,0.01,-0.01,-3.83,1.95,9.12,-0.03,0.01,-0.03,-4.55,-2.15,8.96,0.01,0.04,-0.01,-3.02,-1.37,9.70,0.01,0.02,0.00,-4.57,-5.38,7.39,-0.01,-0.01,0.01,-0.46,0.38,0.83,0.00,0.00,0.00,L
13.362,23,255,0,255,139,-2.01,5.07,8.34,0.00,0.00,0.02,-3.78,1.89,8.99,-0.04,-0.03,0.00,-4.23,-2.21,8.62,0.00,-0.01,-0.01,-2.65,-1.60,9.21,0.00,-0.01,-0.01,-4.10,-5.29,7.06,-0.01,0.01,-0.01,-0.45,0.39,0.82,0.00,0.00,0.00,L
13.413,23,255,0,255,138,-1.82,5.14,8.21,-0.00,0.02,-0.00,-3.82,1.94,9.07,-0.01,0.03,-0.03,-4.57,-2.14,9.06,0.02,0.03,0.00,-3.01,-1.44,9.65,0.02,0.01,0.01,-4.42,-5.43,7.30,-0.01,-0.01,0.01,-0.45,0.38,0.83,0.00,0.00,0.00,L
13.464,21,255,0,255,136,-1.91,4.94,8.24,-0.00,-0.00,0.02,-3.75,1.96,8.93,-0.03,-0.02,-0.01,-4.32,-2.08,8.67,0.01,0.01,-0.02,-2.72,-1.47,9.23,0.00,0.00,0.00,-4.11,-5.23,7.02,-0.02,0.01,-0.00,-0.45,0.38,0.82,0.00,0.00,0.00,L
13.515,22,255,0,255,138,-1.94,5.06,8.34,-0.01,0.01,-0.00,-3.93,1.93,9.19,-0.04,-0.01,-0.01,-4.56,-2.34,8.88,0.01,0.01,0.00,-2.86,-1.64,9.48,0.00,-0.01,0.00,-4.41,-5.34,7.26,-0.01,-0.02,-0.01,-0.45,0.38,0.82,0.00,0.00,0.00,L
13.565,22,255,0,255,138,-1.86,5.32,8.27,0.00,-0.01,0.00,-3.82,2.04,9.06,-0.04,-0.03,-0.02,-4.39,-2.15,8.80,0.00,0.01,-0.02,-2.65,-1.54,9.29,-0.01,-0.01,-0.01,-3.99,-5.33,6.94,-0.02,-0.02,-0.01,-0.44,0.39,0.82,0.00,0.00,0.00,L
13.616,22,255,0,255,138,-1.80,4.98,8.15,-0.01,0.01,-0.02,-3.60,1.86,8.81,-0.03,0.05,-0.05,-4.54,-2.13,8.85,0.02,0.08,-0.00,-3.09,-1.41,9.64,0.03,0.05,0.01,-4.47,-5.32,7.35,-0.01,0.04,0.04,-0.46,0.38,0.82,0.00,0.00,0.00,L
13.667,22,255,0,255,139,-2.03,4.74,8.43,-0.01,-0.01,0.01,-3.94,0.98,8.63,-0.01,0.16,-0.03,-4.01,-2.23,8.26,0.01,-0.04,0.02,-2.70,-1.31,9.30,0.00,-0.05,-0.01,-4.20,-5.19,6.93,-0.01,-0.04,-0.03,-0.44,0.38,0.82,0.00,0.00,0.00,L
13.718,21,255,0,255,136,-1.78,5.03,8.19,-0.02,-0.00,0.01,-4.09,1.96,9.31,-0.04,0.02,-0.02,-4.47,-2.25,8.86,0.01,0.04,-0.00,-2.80,-1.55,9.34,0.01,0.00,0.02,-4.00,-5.28,6.88,0.00,-0.02,0.00,-0.45,0.38,0.82,0.00,0.00,0.00,L
13.77,21,255,0,255,138,-1.89,5.20,8.30,0.00,0.00,0.01,-3.88,1.94,9.12,-0.04,-0.05,0.01,-4.54,-2.17,8.93,0.00,-0.02,0.00,-2.84,-1.59,9.43,-0.01,-0.04,0.02,-4.08,-5.22,7.02,-0.02,-0.04,0.01,-0.44,0.39,0.82,0.00,0.00,0.00,L
13.821,23,255,0,255,138,-1.93,5.13,8.36,-0.01,0.01,-0.01,-3.87,1.76,9.04,-0.01,0.00,-0.04,-4.43,-2.29,8.88,0.02,0.03,-0.02,-2.94,-1.54,9.51,0.02,0.01,-0.02,-4.39,-5.37,7.31,0.00,-0.00,-0.00,-0.45,0.38,0.82,0.00,0.00,0.00,L
13.872,21,255,0,255,138,-1.92,5.16,8.53,0.00,-0.00,0.01,-3.92,2.15,9.12,-0.02,-0.05,-0.02,-4.44,-1.97,8.77,0.01,-0.02,-0.02,-2.61,-1.46,9.26,-0.00,-0.04,-0.01,-4.00,-5.03,6.86,-0.02,-0.05,-0.04,-0.44,0.39,0.82,0.00,0.00,0.00,L
13.922,23,255,0,255,139,-1.93,5.06,8.45,-0.01,0.01,-0.02,-3.77,1.73,9.05,-0.03,0.04,-0.06,-4.51,-2.12,8.89,0.01,0.06,-0.02,-3.04,-1.51,9.62,0.01,0.06,-0.00,-4.60,-5.52,7.53,-0.01,0.03,0.03,-0.46,0.38,0.82,0.00,0.00,0.00,L
13.974,21,255,0,255,135,-2.05,5.18,8.53,0.01,0.00,0.02,-3.87,1.96,9.22,-0.02,-0.05,-0.01,-4.30,-2.15,8.77,0.03,-0.03,-0.02,-2.56,-1.41,9.24,0.01,-0.03,-0.02,-4.07,-4.98,6.99,-0.02,-0.01,-0.01,-0.44,0.40,0.82,0.00,0.00,0.00,L
14.025,22,255,0,255,138,-1.86,4.96,8.18,-0.01,0.04,-0.03,-3.89,1.90,9.03,-0.02,0.06,-0.03,-4.56,-2.24,8.90,0.01,0.06,0.01,-2.94,-1.63,9.57,0.01,0.05,0.01,-4.53,-5.52,7.52,-0.01,0.04,0.02,-0.45,0.38,0.82,0.00,0.00,0.00,L
14.076,22,255,0,255,136,-1.92,5.20,8.33,0.02,0.01,0.01,-3.82,2.02,9.13,-0.00,-0.02,-0.01,-4.37,-2.12,8.89,0.03,-0.01,-0.01,-2.70,-1.36,9.47,0.03,-0.03,-0.01,-4.13,-5.13,7.10,0.01,-0.02,-0.00,-0.45,0.39,0.82,0.00,0.00,0.00,L
14.128,23,255,255,255,136,-1.75,5.13,8.16,-0.00,0.03,-0.01,-3.70,1.99,8.88,-0.01,0.03,-0.03,-4.44,-2.05,8.78,0.03,0.06,-0.00,-2.89,-1.36,9.40,0.02,0.04,0.01,-4.32,-5.21,7.10,-0.01,0.03,0.04,-0.44,0.38,0.82,0.00,0.00,0.00,L
14.181,23,255,0,255,138,-2.14,5.35,8.68,0.00,0.04,0.02,-4.09,1.97,9.28,-0.04,-0.00,0.02,-4.64,-2.21,9.09,-0.01,-0.02,0.01,-2.75,-1.58,9.43,-0.02,-0.04,0.01,-3.99,-5.29,6.96,-0.03,-0.05,-0.04,-0.44,0.39,0.82,0.00,0.00,0.00,L
14.231,22,255,0,255,139,-1.81,5.03,8.16,-0.01,0.00,0.01,-3.65,1.89,8.89,-0.04,0.02,-0.01,-4.36,-2.13,8.83,0.00,0.04,0.02,-2.87,-1.47,9.47,0.01,0.02,0.04,-4.31,-5.25,7.16,-0.02,0.01,0.04,-0.45,0.39,0.82,0.00,0.00,0.00,L
14.283,23,255,0,255,138,-1.97,5.23,8.18,-0.01,0.01,0.04,-3.86,2.15,9.01,-0.04,-0.01,0.01,-4.45,-2.01,8.86,-0.01,0.00,0.01,-2.89,-1.36,9.43,0.00,-0.02,0.04,-4.22,-5.20,7.28,-0.04,-0.04,0.01,-0.44,0.38,0.83,0.00,0.00,0.00,L
14.331,23,255,255,255,136,-1.83,5.00,8.25,-0.04,0.01,0.02,-3.58,1.63,8.89,-0.06,-0.00,-0.00,-4.26,-2.36,8.73,-0.01,0.03,0.00,-2.77,-1.67,9.35,-0.01,0.01,0.01,-4.18,-5.29,7.04,-0.02,0.01,0.02,-0.46,0.39,0.81,0.00,0.00,0.00,L
14.382,23,255,0,255,136,-2.03,5.08,8.32,0.01,0.04,0.01,-4.02,1.85,9.17,-0.01,0.01,-0.01,-4.51,-2.23,8.99,0.04,0.02,-0.00,-2.85,-1.53,9.43,0.03,-0.01,-0.01,-4.22,-5.17,7.16,0.01,-0.01,0.00,-0.44,0.38,0.83,0.00,0.00,0.00,L
14.433,21,255,0,255,138,-1.90,5.13,8.13,-0.01,0.02,-0.01,-3.61,1.95,8.84,-0.03,0.02,-0.01,-4.29,-2.18,8.78,0.01,0.05,0.01,-2.83,-1.60,9.44,0.01,0.02,0.00,-4.11,-5.32,7.05,-0.02,0.01,0.01,-0.44,0.39,0.82,0.00,0.00,0.00,L
14.487,23,255,0,255,138,-1.95,5.11,8.40,-0.01,0.02,-0.02,-3.90,1.75,9.07,-0.02,0.02,-0.03,-4.61,-2.26,9.02,0.02,0.03,-0.02,-2.90,-1.53,9.60,0.02,-0.01,-0.01,-4.29,-5.30,7.25,-0.01,-0.01,-0.02,-0.45,0.39,0.82,0.00,0.00,0.00,L
14.539,22,255,0,255,138,-1.77,5.01,8.14,0.01,0.01,-0.01,-3.49,1.75,8.74,-0.01,0.02,-0.04,-4.17,-2.03,8.64,0.03,0.06,-0.00,-2.72,-1.36,9.31,0.03,0.07,0.00,-4.28,-5.09,7.11,-0.02,0.06,0.04,-0.44,0.39,0.82,0.00,0.00,0.00,L
14.586,22,255,0,255,138,-2.04,5.26,8.23,0.01,0.05,-0.00,-4.03,2.07,9.03,-0.02,0.04,-0.01,-4.50,-2.08,8.79,0.03,0.06,0.01,-2.96,-1.41,9.59,0.02,0.02,0.02,-4.16,-5.27,7.02,-0.02,-0.02,0.01,-0.44,0.38,0.83,0.00,0.00,0.00,L
14.636,22,255,0,255,138,-2.08,5.33,8.47,0.01,0.04,0.03,-3.85,1.72,8.98,-0.11,-0.02,-0.03,-5.06,-1.72,9.34,0.05,0.23,-0.05,-2.34,-1.32,7.93,-0.16,0.25,-0.05,-4.23,-5.21,7.69,-0.03,0.12,0.02,-0.45,0.39,0.82,0.00,0.00,0.00,L
14.688,21,255,0,255,138,-1.97,5.64,8.25,0.00,0.06,0.00,-4.28,2.09,9.33,-0.01,0.02,0.00,-4.84,-2.01,8.98,0.00,-0.01,0.01,-3.02,-1.40,9.45,-0.00,-0.00,0.04,-4.21,-5.16,6.95,-0.03,-0.04,0.03,-0.45,0.37,0.83,0.00,0.00,0.00,L
14.739,23,255,0,255,138,-2.02,5.16,8.20,-0.02,0.00,0.02,-3.88,1.92,9.04,-0.06,0.00,-0.01,-4.46,-2.13,8.69,-0.01,0.03,-0.00,-2.92,-1.53,9.31,-0.02,0.03,0.01,-4.19,-5.28,7.11,-0.04,0.00,0.01,-0.45,0.38,0.82,0.00,0.00,0.00,L
14.789,23,255,0,255,139,-1.81,5.10,8.21,-0.02,0.01,0.03,-3.80,1.89,9.06,-0.05,-0.01,0.00,-4.78,-2.16,9.14,-0.01,-0.01,0.02,-3.11,-1.47,9.58,-0.01,-0.03,0.04,-4.38,-5.39,7.31,-0.03,-0.06,0.04,-0.46,0.38,0.82,0.00,0.00,0.00,L
14.84,23,255,0,255,138,-2.04,5.12,8.23,-0.01,-0.01,-0.00,-3.71,1.82,8.80,-0.04,-0.02,-0.02,-4.31,-2.13,8.49,0.02,0.04,0.00,-2.83,-1.46,9.11,0.02,0.02,0.01,-4.30,-5.32,7.03,-0.01,0.04,0.04,-0.44,0.38,0.82,0.00,0.00,0.00,L
14.891,21,255,0,255,138,-2.08,5.24,8.62,-0.02,-0.00,-0.01,-4.19,1.98,9.54,-0.01,-0.06,0.01,-4.74,-2.56,8.92,0.13,-0.04,0.02,-2.93,-1.60,9.40,0.03,-0.06,0.05,-4.16,-5.45,7.06,-0.00,-0.07,0.01,-0.45,0.38,0.83,0.00,0.00,0.00,L
14.942,21,255,0,255,138,-1.67,4.50,7.91,-0.02,-0.03,-0.01,-3.63,2.38,8.71,0.14,-0.14,-0.10,-4.25,-2.05,8.21,0.28,-0.03,-0.06,-3.06,-1.27,9.48,0.11,0.08,-0.04,-4.52,-5.38,7.34,0.05,0.07,0.06,-0.46,0.39,0.82,0.00,0.00,0.00,L
14.993,23,255,0,255,139,-2.04,5.22,8.40,0.01,0.03,-0.02,-4.10,2.68,9.11,0.12,-0.12,-0.07,-5.19,-1.34,9.32,0.20,-0.04,-0.07,-3.22,-1.17,9.69,0.03,0.01,-0.03,-4.54,-5.24,7.20,-0.02,0.01,-0.01,-0.44,0.37,0.83,0.00,0.00,0.00,L
15.045,23,255,0,255,138,-2.09,5.14,8.39,-0.01,-0.01,0.01,-3.59,1.92,8.79,-0.04,-0.05,-0.02,-4.07,-2.21,8.32,0.02,0.08,-0.07,-2.55,-1.71,8.88,-0.00,0.02,-0.03,-4.17,-5.37,6.85,-0.03,0.03,-0.04,-0.45,0.38,0.82,0.00,0.00,0.00,L
15.096,23,255,255,255,139,-1.81,5.16,8.27,0.01,-0.02,-0.03,-3.87,2.20,9.33,-0.01,0.17,-0.12,-5.67,-1.58,8.96,0.06,0.97,-0.34,-3.23,-1.25,9.84,0.01,0.02,-0.03,-4.55,-5.24,7.37,-0.00,-0.03,-0.02,-0.45,0.37,0.83,0.00,0.00,0.00,L
15.146,21,255,0,255,139,-2.05,5.14,8.48,-0.00,-0.05,0.05,-3.52,1.88,8.44,-0.05,0.11,-0.05,-5.31,-1.46,7.98,-0.27,1.52,-0.40,-2.81,-1.52,9.13,-0.02,-0.03,-0.05,-4.59,-5.11,7.42,-0.01,-0.10,-0.04,-0.45,0.38,0.82,0.00,0.00,0.00,L
15.197,24,255,0,255,139,-1.95,5.56,8.36,-0.01,-0.01,0.03,-4.03,2.83,8.74,-0.47,1.32,-0.60,-11.74,-1.88,8.71,-0.05,3.85,-0.44,-2.26,-1.67,6.71,-0.14,1.15,-0.36,-3.89,-4.76,6.25,-0.08,-0.24,-0.18,-0.43,0.37,0.82,0.00,0.00,0.00,L
15.248,23,255,0,255,145,-2.07,4.87,8.78,-0.07,-0.06,0.10,-4.60,0.89,8.53,-0.63,1.02,-0.27,-3.84,-3.81,4.21,-0.51,3.68,-0.96,-2.70,-2.88,7.81,-0.52,2.15,-0.66,-2.88,-5.44,5.93,-0.09,-0.20,-0.23,-0.45,0.40,0.82,0.00,0.00,0.00,L
15.299,23,255,0,255,145,-1.54,4.52,7.80,0.02,0.02,0.02,-4.74,0.69,8.14,-0.43,1.75,-0.57,-7.92,-3.46,7.09,-0.42,2.28,-0.68,-5.67,-1.81,10.29,-0.12,1.64,-0.40,-4.63,-5.46,7.37,0.02,0.32,-0.08,-0.47,0.41,0.82,0.00,0.00,0.00,L
15.35,26,255,0,255,155,-1.71,5.24,8.25,0.00,-0.06,0.06,-6.75,1.79,8.08,-0.23,1.05,-0.42,-7.96,-3.53,5.58,-0.04,1.12,-0.40,-4.83,-1.91,8.48,-0.02,0.69,-0.25,-4.06,-5.24,7.56,0.08,0.06,-0.15,-0.45,0.40,0.82,0.00,0.00,0.00,L
15.401,25,255,0,255,154,-1.72,5.06,8.10,-0.05,-0.06,0.11,-6.97,1.24,8.09,-0.20,2.49,-1.11,-7.42,-3.23,5.02,-0.17,2.31,-0.55,-4.83,-0.98,8.62,-0.03,2.36,-0.55,-4.38,-5.59,6.43,0.13,1.59,-0.14,-0.44,0.43,0.80,0.00,0.00,0.00,L
15.452,26,255,0,255,168,-1.64,5.71,8.32,-0.05,0.01,-0.02,-8.14,0.51,7.41,-0.56,1.37,-0.69,-9.67,-4.40,3.88,-0.10,0.93,-0.33,-6.96,-2.74,8.38,-0.13,0.95,-0.17,-5.57,-5.54,7.52,-0.05,0.94,-0.19,-0.46,0.39,0.82,0.00,0.00,0.00,L
15.503,27,255,0,255,174,-1.70,4.77,8.17,-0.02,-0.10,0.10,-7.57,-0.40,5.54,-0.18,2.89,-1.24,-7.99,-3.85,2.41,0.00,1.87,-0.37,-6.03,-2.49,6.36,-0.05,2.00,-0.60,-3.92,-5.77,3.42,0.19,2.09,-0.31,-0.45,0.43,0.78,0.00,0.00,0.00,L
15.554,33,255,0,255,192,-1.99,5.56,8.89,0.01,0.06,-0.01,-9.66,0.07,6.31,-0.20,1.80,-0.86,-9.34,-4.39,1.86,-0.02,1.07,-0.23,-7.79,-3.13,6.24,-0.09,1.56,-0.40,-6.11,-6.13,6.07,0.12,2.64,-0.38,-0.45,0.40,0.82,0.00,0.00,0.00,L
15.605,35,255,255,255,200,-2.17,4.74,8.60,-0.12,-0.08,0.07,-1.01,-1.14,5.46,0.20,2.86,-1.33,-8.19,-4.64,1.03,0.23,1.69,-0.43,-6.00,-3.53,4.30,0.06,2.00,-0.66,-6.28,-6.14,2.53,0.12,2.77,-0.51,-0.46,0.44,0.77,0.00,0.00,0.00,L
15.656,40,255,0,255,221,-0.71,5.40,7.56,0.02,0.13,-0.06,-9.82,-0.03,3.82,0.19,1.85,-0.72,-9.50,-4.19,1.11,-0.10,1.42,-0.27,-8.39,-3.35,4.83,-0.15,1.87,-0.30,-8.07,-6.48,4.08,-0.01,2.87,-0.20,-0.45,0.42,0.82,0.00,0.00,0.00,L
15.708,42,255,255,255,229,-2.60,5.64,9.11,-0.08,0.00,0.05,-7.27,-2.40,1.62,0.19,1.48,-0.76,-7.25,-4.75,0.18,0.15,1.81,-0.52,-7.24,-3.51,3.47,0.09,1.95,-0.65,-4.60,-6.19,-0.34,0.08,2.88,-0.55,-0.47,0.44,0.77,0.00,0.00,0.00,L
15.758,49,255,255,255,242,-1.24,4.93,8.30,-0.03,0.15,-0.10,-11.02,-1.08,1.69,0.20,1.60,-0.78,-10.82,-4.77,-1.06,-0.08,1.80,-0.57,-10.62,-3.68,3.22,-0.18,2.25,-0.64,-9.56,-6.75,1.40,0.13,2.91,-0.39,-0.47,0.40,0.83,0.00,0.00,0.00,L
15.809,52,255,0,255,250,-2.15,4.04,8.72,-0.12,-0.02,0.21,-8.40,-3.08,1.33,0.09,1.40,-0.73,-6.45,-5.39,-0.91,-0.07,2.07,-0.51,-2.26,-4.12,3.96,0.06,2.99,-0.85,-8.62,-5.52,2.33,0.13,2.35,-0.32,-0.46,0.47,0.75,0.00,0.00,0.00,L
15.861,57,255,0,255,255,-1.03,5.29,8.02,-0.10,0.06,-0.06,-9.97,-2.58,0.73,0.03,1.32,-0.67,-9.24,-5.14,-2.35,-0.14,1.76,-0.46,-9.83,-4.10,0.46,0.05,2.13,-0.71,-8.79,-6.49,-0.14,0.71,1.68,-0.31,-0.48,0.40,0.80,0.00,0.00,0.00,L
15.911,61,255,0,255,255,-2.18,4.86,8.97,-0.09,0.01,0.10,-8.49,-3.25,-0.24,0.04,1.34,-0.83,-7.43,-5.41,-2.50,-0.04,2.13,-0.54,-9.00,-4.52,0.75,0.07,2.13,-0.83,-8.39,-6.08,0.69,1.31,1.57,-0.41,-0.46,0.45,0.77,0.00,0.00,0.00,L
15.962,65,255,0,255,255,-1.54,5.43,8.49,-0.10,0.05,-0.05,-10.32,-3.53,-0.59,-0.02,0.83,-0.55,-7.14,-5.89,-3.96,-0.11,1.10,-0.28,-8.45,-5.21,-0.98,0.06,1.08,-0.39,-7.61,-6.56,-0.54,1.06,0.69,-0.09,-0.48,0.42,0.79,0.00,0.00,0.00,L
16.014,66,255,0,255,255,-1.81,4.40,8.76,-0.13,0.07,0.07,-9.04,-3.20,-0.77,0.04,0.77,-0.62,-7.37,-5.69,-3.78,-0.03,1.04,-0.31,-9.50,-4.68,-0.61,-0.03,0.91,-0.48,-8.00,-6.82,-0.44,0.67,0.63,-0.45,-0.47,0.43,0.78,0.00,0.00,0.00,L
16.065,72,255,0,255,253,-1.48,4.70,8.38,-0.11,-0.04,0.06,-7.68,-3.37,-2.34,-0.05,0.51,-0.52,-7.07,-5.66,-3.97,-0.07,0.79,-0.26,-8.37,-5.67,-1.17,-0.02,0.60,-0.26,-6.69,-7.06,-0.42,0.62,0.48,-0.04,-0.49,0.41,0.78,0.00,0.00,0.00,L
16.116,77,255,0,255,253,-1.53,4.76,8.56,-0.07,0.26,0.07,-9.74,-3.59,-1.82,-0.01,0.89,-0.60,-6.45,-5.78,-5.60,-0.09,0.77,-0.25,-8.25,-5.72,-2.71,-0.01,0.42,-0.21,-7.22,-7.18,-0.85,0.55,0.47,-0.18,-0.48,0.41,0.79,0.00,0.00,0.00,L
16.167,79,255,0,255,253,-2.26,5.18,8.77,-0.21,0.28,0.22,-8.69,-4.43,-1.90,-0.05,0.39,-0.46,-6.03,-6.14,-4.64,-0.09,0.64,-0.22,-7.31,-5.62,-1.79,0.03,0.26,-0.12,-6.19,-7.13,-0.67,0.22,0.29,0.04,-0.48,0.41,0.78,0.00,0.00,0.00,L
16.218,80,255,0,255,253,-1.44,4.21,8.30,-0.13,0.16,0.04,-8.79,-4.44,-2.45,0.05,0.27,-0.38,-6.49,-5.93,-5.44,-0.03,0.56,-0.19,-8.51,-5.68,-2.04,0.02,0.24,-0.14,-7.36,-7.07,-0.85,0.09,0.09,-0.01,-0.51,0.39,0.79,0.00,0.00,0.00,L
16.269,87,255,0,255,252,-1.82,4.07,8.63,-0.16,0.32,0.16,-8.33,-4.79,-2.38,0.01,0.21,-0.28,-5.17,-5.92,-5.27,-0.00,0.24,-0.07,-7.27,-5.44,-1.92,0.02,0.11,-0.05,-6.66,-6.55,-0.97,-0.06,0.08,-0.04,-0.50,0.42,0.78,0.00,0.00,0.00,L
16.319,91,255,0,255,252,-1.96,4.67,8.94,-0.18,0.36,0.09,-8.44,-4.89,-2.83,-0.07,0.27,-0.42,-5.85,-6.08,-5.50,-0.07,0.39,-0.22,-7.92,-6.06,-2.05,-0.03,0.03,-0.13,-6.92,-7.20,-0.76,-0.01,-0.02,-0.05,-0.51,0.40,0.78,0.00,0.00,0.00,L
16.371,95,255,0,255,249,-2.02,4.06,8.38,-0.11,0.11,0.08,-8.06,-5.03,-2.47,-0.05,0.29,-0.34,-6.00,-6.24,-5.33,-0.03,0.41,-0.19,-8.15,-5.80,-2.12,-0.01,0.23,-0.14,-7.27,-7.02,-1.14,0.06,0.17,-0.10,-0.49,0.41,0.77,0.00,0.00,0.00,L
16.421,100,255,0,255,248,-2.43,4.36,8.90,-0.08,0.27,0.12,-7.80,-5.04,-2.85,-0.02,0.08,-0.21,-5.17,-6.22,-5.38,-0.01,0.19,-0.11,-7.61,-6.04,-2.06,0.01,0.12,-0.08,-7.13,-7.21,-0.76,0.00,0.04,-0.08,-0.50,0.40,0.77,0.00,0.00,0.00,L
16.472,101,255,255,255,248,-2.21,4.84,8.42,-0.11,0.30,0.17,-7.84,-4.92,-2.68,-0.02,0.07,-0.14,-5.45,-5.96,-5.48,0.02,0.05,-0.03,-7.70,-5.90,-2.15,0.00,0.02,-0.04,-6.94,-7.07,-1.29,-0.03,0.02,-0.06,-0.50,0.41,0.77,0.00,0.00,0.00,L
16.524,106,255,255,255,246,-2.72,4.62,8.86,-0.10,0.29,0.15,-8.23,-5.38,-3.02,0.01,-0.09,-0.04,-5.31,-6.23,-5.71,0.12,-0.15,0.03,-7.20,-5.79,-2.48,0.06,-0.13,0.02,-6.65,-6.96,-0.80,-0.03,-0.03,0.01,-0.51,0.40,0.78,0.00,0.00,0.00,L
16.574,108,255,0,255,245,-2.53,4.70,8.80,-0.08,0.05,0.07,-8.05,-5.29,-2.60,0.07,-0.38,0.10,-5.34,-6.21,-5.32,0.16,-0.07,0.01,-7.50,-5.85,-2.11,0.11,-0.10,0.03,-6.93,-7.04,-0.83,-0.14,-0.09,-0.01,-0.51,0.41,0.77,0.00,0.00,0.00,L
16.625,107,255,0,255,245,-2.45,4.23,8.69,0.04,-0.12,0.03,-7.31,-5.31,-2.75,0.00,-0.72,0.37,-5.39,-5.85,-5.39,0.14,-0.22,0.14,-7.77,-5.58,-1.79,0.08,-0.26,0.14,-6.93,-6.84,-0.61,-0.54,-0.20,0.06,-0.51,0.41,0.77,0.00,0.00,0.00,L
16.676,100,255,0,255,244,-2.34,4.24,8.83,0.20,-0.37,-0.21,-9.81,-4.53,-1.35,-0.16,-1.20,0.68,-7.95,-6.76,-4.07,0.23,-1.41,0.52,-10.32,-5.90,0.12,0.14,-1.55,0.56,-7.99,-7.76,0.82,-3.12,-1.54,-0.18,-0.52,0.38,0.78,0.00,0.00,0.00,L
16.728,89,255,0,255,250,-1.65,4.62,8.08,0.50,-0.72,-0.26,-7.53,-4.45,-1.15,0.05,-0.87,0.64,-4.07,-4.94,-5.21,0.17,-0.88,0.56,-5.72,-4.53,-1.64,0.13,-0.81,0.55,-7.07,-6.00,-1.35,-0.50,-0.33,0.36,-0.49,0.48,0.73,0.00,0.00,0.00,L
16.778,82,255,0,255,246,-1.78,5.94,8.73,0.37,-0.14,-0.24,-10.44,-3.43,-0.92,-0.32,-0.77,0.42,-8.70,-6.01,-4.70,0.01,-1.25,0.36,-10.87,-5.23,0.38,-0.05,-1.56,0.53,-8.51,-7.29,-0.55,-0.63,-1.59,0.19,-0.49,0.39,0.81,0.00,0.00,0.00,L
16.83,77,255,0,255,241,-2.12,3.50,8.49,0.10,-0.34,-0.25,-8.66,-3.95,1.08,-0.44,-4.98,2.33,-3.34,-6.89,-7.50,0.31,-6.60,1.86,-7.66,-4.78,-0.98,0.60,-6.39,2.17,-7.44,-5.73,0.31,-0.76,-4.55,1.15,-0.54,0.45,0.74,0.00,0.00,0.00,L
16.88,69,255,0,255,229,-1.52,4.96,8.22,0.43,-0.12,-0.30,-9.46,-2.43,1.85,-0.01,-3.64,1.73,-9.01,-5.15,0.48,0.23,-5.00,1.42,-8.91,-3.52,3.83,0.20,-5.12,1.70,-8.16,-5.91,1.38,-0.39,-5.45,1.14,-0.44,0.44,0.79,0.00,0.00,0.00,L
16.931,64,255,0,255,210,-2.35,5.61,8.86,0.21,-0.13,-0.28,-7.66,-1.83,3.88,0.25,-4.42,2.01,-8.66,-4.48,0.96,0.32,-5.34,1.26,-7.00,-3.33,4.62,0.27,-4.91,1.47,-7.07,-5.39,1.84,-0.29,-4.87,0.71,-0.45,0.45,0.78,0.00,0.00,0.00,L
16.982,59,255,0,255,191,-1.69,5.16,7.99,0.09,-0.03,-0.12,-2.30,-0.87,5.11,0.16,-2.70,1.52,-7.41,-3.68,1.91,-0.05,-2.82,0.96,-5.65,-2.57,5.98,0.10,-1.60,0.59,-6.31,-5.51,3.65,-0.03,-1.80,0.41,-0.45,0.43,0.79,0.00,0.00,0.00,L
17.033,55,255,255,255,180,-2.21,5.56,8.58,0.04,-0.01,-0.01,-4.82,-0.63,7.73,0.32,-2.17,1.18,-8.92,-3.51,5.38,0.19,-2.67,0.81,-6.33,-2.30,7.92,0.16,-1.55,0.54,-6.65,-5.99,5.13,-0.10,-1.90,0.36,-0.46,0.43,0.80,0.00,0.00,0.00,L
17.084,53,255,0,255,177,-1.61,4.89,7.93,0.03,0.01,-0.07,-6.75,0.06,6.62,0.38,-1.38,0.77,-6.37,-3.24,6.24,0.21,-2.21,0.68,-4.95,-2.10,7.75,0.23,-1.29,0.47,-6.32,-5.39,5.39,-0.10,-1.60,0.37,-0.45,0.44,0.80,0.00,0.00,0.00,L
17.135,49,255,0,255,170,-2.04,5.37,8.47,0.05,-0.01,-0.08,-7.23,0.88,7.92,0.35,-1.35,0.77,-7.27,-2.42,7.39,0.26,-1.92,0.61,-5.55,-1.58,9.00,0.20,-1.44,0.50,-6.52,-5.57,6.35,-0.04,-1.73,0.37,-0.44,0.42,0.81,0.00,0.00,0.00,L
17.186,49,255,0,255,162,-1.93,5.10,8.17,0.00,-0.01,-0.04,-5.23,0.53,6.86,0.31,-1.57,0.79,-5.43,-2.36,7.55,0.29,-1.84,0.48,-3.75,-1.95,8.43,0.20,-1.05,0.30,-4.07,-5.47,6.04,0.03,-1.47,0.34,-0.45,0.43,0.79,0.00,0.00,0.00,L
17.238,48,255,0,255,153,-1.69,5.16,8.01,0.03,0.06,-0.05,-5.83,2.25,8.12,0.29,-0.77,0.36,-6.04,-1.97,8.23,0.17,-1.39,0.35,-3.04,-0.98,10.58,0.14,-0.99,0.36,-5.33,-5.16,7.04,0.01,-0.93,0.28,-0.44,0.41,0.82,0.00,0.00,0.00,L
17.288,48,255,0,255,149,-2.38,5.32,8.65,0.00,0.00,-0.00,-5.23,1.00,9.24,0.04,-1.29,0.53,-3.93,-2.62,8.39,0.24,-1.63,0.37,-3.03,-1.55,8.42,0.19,-0.92,0.23,-4.78,-5.27,6.68,0.03,-1.41,0.18,-0.44,0.41,0.81,0.00,0.00,0.00,L
17.339,49,255,255,255,141,-1.83,4.94,8.15,0.01,0.03,-0.00,-4.63,1.61,9.93,0.41,-1.37,0.55,-3.99,-1.96,9.09,0.29,-1.13,0.27,-3.13,-0.98,9.81,0.20,-0.74,0.20,-4.51,-5.03,7.65,0.03,-1.12,0.27,-0.44,0.42,0.82,0.00,0.00,0.00,L
17.39,45,255,0,255,132,-2.15,5.32,8.34,0.04,0.02,0.01,-3.85,1.63,8.99,-0.05,-0.93,0.29,-3.63,-2.07,8.97,0.21,-1.30,0.29,-2.38,-1.58,9.05,0.09,-0.83,0.17,-3.70,-4.74,7.32,0.01,-1.08,0.04,-0.43,0.41,0.82,0.00,0.00,0.00,L
17.441,48,255,0,255,123,-1.85,5.09,8.11,0.01,0.02,-0.01,-2.74,2.13,8.42,0.29,-0.81,0.18,-3.29,-1.46,9.50,0.31,-0.59,0.10,-2.42,-0.88,9.52,0.18,-0.45,0.12,-3.51,-4.70,7.76,0.02,-0.41,0.07,-0.44,0.41,0.81,0.00,0.00,0.00,L
17.492,45,255,0,255,119,-2.13,5.47,8.49,0.03,0.03,-0.02,-3.67,2.80,10.04,0.03,-0.75,0.23,-3.27,-1.58,9.65,0.10,-0.93,0.27,-1.92,-1.30,9.56,0.03,-0.80,0.19,-3.09,-5.02,7.61,-0.01,-1.02,0.06,-0.43,0.40,0.83,0.00,0.00,0.00,L
17.543,44,255,0,255,112,-1.88,4.73,8.14,-0.01,0.02,-0.01,-2.17,1.87,8.90,0.16,-0.47,0.02,-2.29,-1.43,8.96,0.41,-0.42,0.03,-1.71,-1.01,9.53,0.18,-0.25,0.02,-2.95,-4.78,7.82,0.10,-0.29,-0.00,-0.44,0.42,0.81,0.00,0.00,0.00,L
17.595,45,255,0,255,108,-2.04,5.54,8.22,0.02,0.03,0.00,-2.63,3.13,9.34,0.04,-0.32,0.06,-2.66,-0.91,9.79,0.02,-0.33,0.13,-1.58,-0.92,9.73,-0.04,-0.21,0.10,-2.65,-4.90,7.59,-0.05,-0.31,-0.01,-0.42,0.39,0.84,0.00,0.00,0.00,L
17.645,44,255,0,255,107,-2.02,5.04,8.10,-0.01,-0.01,-0.00,-1.91,1.83,8.96,-0.02,-0.24,0.04,-2.06,-1.71,9.33,0.03,-0.01,-0.00,-1.61,-1.01,9.85,0.06,0.03,-0.01,-2.92,-4.98,8.21,0.02,0.06,0.03,-0.44,0.41,0.81,0.00,0.00,0.00,L
17.697,43,255,0,255,105,-2.03,5.28,8.19,0.01,0.02,0.02,-2.56,2.97,9.73,0.07,-0.19,-0.03,-3.10,-0.45,10.58,0.05,-0.14,0.04,-1.92,-0.29,10.21,-0.01,-0.19,0.07,-3.27,-4.77,8.76,-0.02,-0.11,-0.00,-0.43,0.39,0.83,0.00,0.00,0.00,L
17.747,43,255,0,255,104,-2.00,5.01,8.09,-0.01,-0.02,0.04,-1.79,2.15,9.13,-0.02,-0.13,-0.03,-1.85,-1.42,9.16,0.02,-0.01,-0.01,-1.01,-1.08,9.17,0.01,0.02,-0.01,-2.46,-4.94,7.72,0.01,0.01,0.03,-0.43,0.41,0.81,0.00,0.00,0.00,L
17.798,41,255,0,255,103,-2.09,5.44,8.38,0.00,0.01,-0.01,-2.47,1.91,9.63,0.01,-0.03,-0.11,-3.04,-0.65,10.60,0.09,-0.09,0.00,-1.68,-0.70,10.18,0.04,-0.16,0.08,-2.53,-5.05,8.03,0.01,-0.20,0.03,-0.44,0.39,0.83,0.00,0.00,0.00,L
17.849,42,255,0,255,104,-2.04,5.13,8.35,-0.01,-0.03,0.01,-1.33,1.75,8.68,-0.05,-0.10,-0.02,-2.00,-1.23,9.44,0.05,-0.05,-0.01,-1.05,-1.08,9.33,0.08,-0.13,0.02,-2.41,-4.76,7.74,0.00,-0.10,0.05,-0.43,0.40,0.82,0.00,0.00,0.00,L
17.9,42,255,0,255,105,-1.98,5.46,8.25,0.01,0.00,-0.01,-2.09,2.67,9.38,0.02,-0.07,-0.06,-2.96,-0.62,10.63,0.07,-0.04,-0.02,-1.77,-0.25,10.41,0.02,-0.10,0.00,-2.79,-4.54,8.52,-0.02,-0.23,0.00,-0.43,0.38,0.83,0.00,0.00,0.00,L
17.951,43,255,0,255,104,-2.15,5.04,8.38,-0.02,-0.01,0.01,-1.65,1.94,9.18,-0.03,-0.04,-0.04,-1.89,-1.33,9.41,0.01,-0.01,-0.03,-1.01,-0.91,9.45,0.03,-0.04,-0.03,-2.43,-4.79,8.11,-0.02,-0.06,-0.01,-0.43,0.40,0.82,0.00,0.00,0.00,L
18.002,42,255,0,255,101,-1.94,5.38,8.36,-0.01,-0.01,-0.04,-3.15,1.29,10.03,-0.22,0.00,-0.26,-2.47,-0.93,10.33,0.10,-0.10,-0.04,-1.65,-0.69,10.38,0.17,-0.21,-0.06,-2.74,-4.85,8.49,-0.01,-0.33,-0.02,-0.44,0.39,0.83,0.00,0.00,0.00,L
18.053,42,255,0,255,103,-2.03,4.98,8.27,-0.02,0.01,0.01,-1.91,2.68,9.44,-0.02,-0.12,-0.01,-1.75,-1.35,9.31,-0.01,-0.12,0.02,-0.77,-1.09,9.25,0.05,-0.23,-0.01,-2.17,-4.71,7.77,0.02,-0.48,-0.09,-0.42,0.40,0.82,0.00,0.00,0.00,L
18.104,42,255,0,255,99,-1.92,5.32,8.14,-0.00,0.01,-0.01,-1.82,2.57,9.31,-0.03,0.07,-0.06,-2.22,-0.95,9.93,0.07,0.10,-0.04,-1.43,-0.64,10.28,0.06,0.03,-0.04,-2.24,-4.77,8.63,0.02,-0.29,-0.20,-0.44,0.39,0.83,0.00,0.00,0.00,L
18.156,41,255,0,255,97,-2.08,5.20,8.29,0.02,-0.01,0.02,-2.15,2.60,9.72,-0.06,-0.02,0.01,-1.96,-1.23,9.50,0.00,-0.01,-0.02,-0.71,-1.07,9.35,-0.00,-0.01,-0.06,-1.82,-4.52,8.11,0.10,-0.34,-0.23,-0.42,0.40,0.82,0.00,0.00,0.00,L
18.206,41,255,0,255,94,-1.84,5.17,8.14,0.01,0.02,0.00,-2.14,2.92,9.51,-0.05,0.11,-0.06,-2.53,-0.83,10.30,-0.01,0.17,-0.05,-1.55,-0.18,10.46,0.00,0.08,-0.01,-2.00,-4.62,8.58,-0.01,-0.12,-0.07,-0.44,0.39,0.83,0.00,0.00,0.00,L
18.257,42,255,0,255,94,-2.17,5.27,8.37,0.02,-0.00,0.04,-2.03,2.69,9.17,-0.14,0.19,-0.03,-2.00,-0.66,9.28,-0.14,0.24,-0.11,-1.04,-0.42,9.37,-0.20,0.16,-0.03,-1.22,-4.87,7.46,-0.11,0.01,-0.08,-0.42,0.40,0.82,0.00,0.00,0.00,L
18.308,41,255,0,255,93,-1.88,5.36,8.11,-0.01,0.00,0.01,-2.07,2.80,9.35,-0.15,0.29,-0.06,-2.45,-1.69,9.97,-0.02,0.10,-0.08,-1.42,-1.07,10.07,-0.15,0.13,0.01,-1.16,-5.32,6.36,-0.05,0.59,-0.01,-0.43,0.40,0.83,0.00,0.00,0.00,L
18.359,41,255,255,255,101,-1.95,5.07,8.34,-0.01,0.04,0.04,-2.34,2.38,9.62,-0.08,0.10,0.06,-2.00,-1.99,9.39,-0.05,0.06,-0.08,-0.98,-1.15,8.95,-0.19,0.50,-0.09,-3.13,-4.39,5.10,0.14,5.57,-0.41,-0.42,0.40,0.83,0.00,0.00,0.00,L
18.411,40,255,0,255,160,-1.82,5.66,8.16,0.00,0.02,0.01,-2.50,2.91,9.31,-0.10,0.14,0.02,-2.46,-0.81,9.42,-0.05,0.31,-0.10,-3.45,0.87,11.10,-0.46,3.11,-0.51,-5.17,-5.41,7.64,0.37,4.93,-0.56,-0.44,0.38,0.84,0.00,0.00,0.00,L
18.462,41,255,0,255,188,-2.11,5.03,8.20,-0.04,0.00,0.03,-2.39,1.53,9.52,-0.08,-0.06,0.06,-1.92,-2.21,9.16,-0.01,0.03,-0.03,-2.79,-1.44,9.30,-0.00,1.47,-0.33,-5.57,-5.41,6.33,0.10,2.27,-0.31,-0.42,0.42,0.82,0.00,0.00,0.00,L
18.512,41,255,0,255,199,-1.46,5.05,7.87,-0.04,-0.02,-0.05,-2.52,2.92,9.72,0.03,-0.23,0.03,-2.92,-1.01,10.37,0.09,-0.16,0.03,-3.76,-1.33,8.00,-0.20,2.00,-0.49,-6.32,-5.03,4.77,-0.07,2.94,-0.32,-0.43,0.40,0.83,0.00,0.00,0.00,L
18.563,42,255,0,255,215,-2.47,4.91,8.95,-0.07,0.02,-0.03,-2.37,2.24,9.54,-0.19,-0.39,0.19,-2.45,-1.77,9.91,-0.00,-0.27,-0.04,-4.27,-1.61,9.32,-0.01,1.11,-0.42,-7.38,-4.87,5.14,-0.03,1.44,-0.26,-0.42,0.42,0.81,0.00,0.00,0.00,L
18.615,40,255,0,255,225,-1.45,5.41,8.08,-0.04,-0.10,-0.05,-1.24,1.83,8.85,0.05,-0.31,-0.01,-2.33,-1.38,9.99,0.16,-0.23,-0.10,-5.75,-1.09,8.64,-0.09,1.04,-0.31,-5.80,-5.26,4.60,0.05,1.52,-0.11,-0.44,0.42,0.82,0.00,0.00,0.00,L
18.665,41,255,0,255,233,-2.36,5.06,8.64,0.01,-0.02,-0.08,-1.71,2.61,9.33,0.03,-0.14,-0.05,-1.83,-1.37,9.50,0.06,0.03,-0.13,-5.33,-1.89,7.13,0.04,1.22,-0.44,-6.65,-6.26,1.35,0.02,1.89,-0.10,-0.41,0.44,0.81,0.00,0.00,0.00,L
18.716,43,255,0,255,238,-1.76,5.51,8.31,-0.05,-0.04,-0.12,-2.00,2.72,9.15,0.01,0.06,-0.03,-3.26,-0.66,11.03,0.01,0.41,-0.12,-8.01,-1.08,9.35,-0.12,1.34,-0.41,-7.90,-5.66,2.96,-0.09,1.09,-0.09,-0.43,0.40,0.82,0.00,0.00,0.00,L
18.768,45,255,0,255,248,-2.57,4.92,8.79,-0.03,-0.04,-0.01,-1.54,0.98,9.42,-0.03,-0.16,0.01,-0.64,-2.06,7.98,0.12,0.27,-0.20,-6.12,-1.71,7.40,0.08,0.71,-0.30,-7.80,-5.02,3.38,0.02,0.82,-0.03,-0.41,0.47,0.78,0.00,0.00,0.00,L
18.818,46,255,0,255,244,-1.57,5.54,8.29,0.00,0.01,-0.19,-2.85,4.51,10.34,-0.03,-0.03,-0.01,-4.11,0.24,11.22,0.07,0.08,0.03,-7.21,-1.66,5.42,-0.02,0.52,-0.06,-8.08,-5.82,0.63,0.00,0.95,-0.18,-0.43,0.40,0.83,0.00,0.00,0.00,L
18.869,45,255,0,255,253,-2.53,4.36,8.48,-0.07,-0.08,0.03,-1.15,0.93,8.93,-0.15,0.03,0.01,-0.63,-2.54,6.71,0.07,1.19,-0.34,-6.69,-2.34,6.76,-0.04,2.31,-0.77,-9.24,-5.65,4.64,0.46,2.72,-0.25,-0.42,0.48,0.78,0.00,0.00,0.00,L
18.92,47,255,0,255,253,-1.56,5.37,8.11,-0.04,-0.01,-0.12,-2.91,3.44,10.83,0.03,-0.02,0.05,-4.66,-0.65,11.76,-0.16,0.50,-0.20,-8.83,-1.56,7.70,-0.03,0.17,-0.08,-8.17,-6.01,1.59,-0.10,-0.23,-0.07,-0.42,0.41,0.82,0.00,0.00,0.00,L
18.971,48,255,0,255,255,-1.74,4.46,8.04,-0.00,-0.05,0.02,-0.37,0.93,8.08,-0.07,-0.07,-0.05,-1.69,-1.75,7.81,0.06,0.84,-0.25,-6.43,-2.69,4.29,0.03,1.05,-0.24,-8.38,-5.64,1.78,0.02,1.42,-0.01,-0.42,0.48,0.77,0.00,0.00,0.00,L
19.023,48,255,0,255,253,-2.11,5.77,8.67,0.01,0.09,-0.11,-2.97,3.67,10.56,-0.04,0.10,0.05,-5.93,-0.94,11.82,-0.21,0.09,0.08,-9.24,-3.07,6.45,-0.06,-0.31,0.06,-8.74,-5.69,1.77,0.12,-0.50,-0.04,-0.42,0.40,0.84,0.00,0.00,0.00,L
19.073,45,255,0,255,252,-1.69,4.73,7.86,0.02,-0.10,0.02,-0.85,2.03,8.37,-0.01,-0.11,-0.13,-2.69,-1.47,8.66,0.08,-0.12,0.01,-7.35,-1.78,6.36,0.06,-0.61,0.17,-8.27,-5.14,2.37,-0.10,-0.89,0.09,-0.43,0.46,0.79,0.00,0.00,0.00,L
19.124,47,255,0,255,245,-2.01,5.33,8.42,0.06,0.06,-0.07,-2.42,3.01,10.17,-0.03,0.04,-0.07,-4.55,-1.36,10.98,0.07,-1.05,0.29,-9.83,-1.91,10.42,0.12,-3.81,0.94,-11.58,-5.40,6.00,-0.30,-5.12,0.36,-0.43,0.43,0.82,0.00,0.00,0.00,L
19.175,45,255,0,255,233,-2.00,4.63,8.07,0.19,-0.03,-0.04,-1.49,1.66,9.14,0.09,-0.10,-0.18,-1.94,-2.15,8.35,0.13,-0.88,0.07,-3.95,-2.93,5.71,0.48,-6.94,1.89,-5.90,-5.75,2.20,-0.59,-8.85,0.89,-0.41,0.47,0.79,0.00,0.00,0.00,L
19.227,45,255,255,255,204,-1.71,5.71,8.29,0.24,0.11,-0.19,-1.88,4.35,9.51,0.04,-0.13,-0.08,-3.61,0.90,11.67,-0.02,-0.83,0.17,-3.72,0.07,8.49,0.39,-4.37,1.24,-5.86,-6.43,7.70,-0.65,-6.76,1.02,-0.41,0.41,0.86,0.00,0.00,0.00,L
19.277,44,255,255,255,169,-2.51,5.14,8.37,-0.07,-0.02,0.04,-1.17,1.61,8.71,-0.09,-0.13,-0.02,-0.67,-2.32,8.02,-0.00,-0.68,0.13,0.66,-1.72,6.71,0.01,-1.44,0.31,-0.97,-6.60,2.53,-0.55,-5.35,0.66,-0.42,0.45,0.80,0.00,0.00,0.00,L
19.328,43,255,0,255,124,-1.56,5.24,8.05,0.06,0.13,-0.09,-2.47,4.23,10.31,0.03,0.00,-0.04,-3.08,-0.15,10.97,0.02,-0.31,0.23,-1.26,-0.27,10.75,0.10,-0.82,0.42,-1.99,-6.28,10.76,-0.23,-2.14,0.37,-0.43,0.39,0.86,0.00,0.00,0.00,L
19.379,43,255,0,255,108,-2.43,5.11,8.42,-0.01,-0.03,0.08,-1.52,2.20,9.28,-0.03,-0.09,-0.03,-1.20,-1.45,9.17,0.03,-0.23,0.03,1.05,-1.31,8.85,0.08,-0.80,0.12,1.42,-5.73,5.43,0.02,-0.98,0.10,-0.40,0.44,0.80,0.00,0.00,0.00,L
19.43,42,255,0,255,89,-1.98,5.38,8.21,0.01,0.07,-0.08,-1.70,3.06,9.42,0.06,-0.03,-0.11,-2.64,-0.57,10.90,0.08,-0.13,0.04,-0.98,-0.08,11.00,0.12,-0.31,0.19,-1.26,-5.66,8.96,-0.02,-0.58,0.15,-0.43,0.39,0.85,0.00,0.00,0.00,L
19.482,43,255,255,255,84,-2.82,5.49,8.77,0.02,0.03,0.11,-1.63,2.01,9.28,-0.09,-0.07,0.04,-1.01,-1.57,9.13,-0.01,-0.04,-0.02,0.70,-1.44,8.70,0.02,-0.16,-0.04,0.17,-5.05,7.54,-0.07,0.09,-0.00,-0.39,0.43,0.81,0.00,0.00,0.00,L
19.532,40,255,0,255,82,-1.93,5.23,8.13,0.01,0.06,-0.06,-1.77,2.79,9.53,0.02,0.13,-0.09,-1.59,-1.02,9.76,0.02,0.24,-0.05,-0.22,-0.05,9.96,-0.05,0.35,0.09,-0.44,-5.35,8.52,-0.06,-0.09,0.21,-0.41,0.41,0.83,0.00,0.00,0.00,L
19.583,40,255,0,255,80,-2.54,5.94,8.49,-0.01,0.03,0.04,-2.38,3.10,10.21,-0.10,-0.06,0.10,-1.60,-1.25,9.66,-0.11,-0.23,0.06,0.01,-1.93,9.42,-0.21,0.12,0.04,-0.03,-6.04,7.60,-0.11,0.01,-0.03,-0.40,0.41,0.83,0.00,0.00,0.00,L
19.634,41,255,0,255,77,-1.81,5.11,7.81,0.01,0.04,-0.02,-1.39,2.58,9.12,0.04,0.07,-0.09,-1.71,-0.62,10.15,0.09,0.13,-0.04,-1.14,-0.69,11.06,-0.06,0.35,0.08,-1.27,-5.61,9.74,-0.05,-0.03,0.13,-0.42,0.42,0.83,0.00,0.00,0.00,L
19.685,39,255,0,255,78,-2.45,5.89,8.66,0.04,0.02,0.05,-2.70,3.86,10.59,-0.06,-0.07,0.05,-1.88,-0.91,10.11,-0.13,-0.27,0.04,0.11,-1.10,8.52,-0.20,0.78,-0.21,-0.15,-5.41,7.82,-0.16,0.12,0.01,-0.39,0.41,0.83,0.00,0.00,0.00,L
19.736,40,255,0,255,78,-2.10,5.33,8.03,-0.08,-0.02,0.07,-1.19,2.54,8.83,-0.19,-0.17,0.05,-0.19,-1.79,8.21,-0.16,0.17,-0.11,-4.49,-0.18,10.84,-0.43,3.28,-1.06,-0.38,-5.13,6.95,0.06,1.19,-0.02,-0.40,0.42,0.81,0.00,0.00,0.00,L
19.787,39,255,255,255,97,-2.59,6.08,8.79,-0.12,0.10,0.13,-2.42,2.99,10.44,-0.24,-0.09,0.24,-0.23,-2.82,7.13,-0.20,0.83,-0.42,-4.48,-3.14,7.34,-0.66,5.95,-1.66,-1.05,-6.14,4.14,0.15,3.14,-0.44,-0.39,0.41,0.83,0.00,0.00,0.00,L
19.838,41,255,0,255,145,-1.90,5.26,7.76,-0.20,-0.00,0.12,-1.35,2.47,9.17,-0.14,0.11,0.08,-0.99,-2.55,6.80,-0.21,2.13,-0.60,-9.05,-2.67,9.11,-0.20,6.34,-1.57,-5.20,-5.43,10.71,-0.02,3.98,-0.72,-0.41,0.42,0.81,0.00,0.00,0.00,L
19.889,41,255,0,255,185,-1.83,5.09,8.10,-0.15,-0.09,0.09,-1.58,2.53,9.47,-0.05,-0.10,0.02,-4.98,-3.14,10.40,-0.49,2.94,-0.63,-9.07,-2.24,6.75,-0.01,3.43,-0.83,-5.38,-5.39,8.68,0.28,4.78,-0.45,-0.45,0.42,0.83,0.00,0.00,0.00,L
19.94,43,255,0,255,214,-1.88,5.02,7.98,-0.07,-0.11,0.13,-1.81,2.51,9.85,0.06,-0.12,0.02,-2.72,-2.08,4.84,-0.30,3.88,-1.01,-8.49,-2.86,5.04,-0.27,4.74,-1.33,-4.56,-5.27,5.53,-0.05,3.76,-0.51,-0.40,0.47,0.80,0.00,0.00,0.00,L
19.991,48,255,0,255,231,-1.58,5.18,8.32,-0.10,-0.06,0.03,-1.46,2.77,9.48,-0.01,0.09,-0.05,-8.70,-2.30,9.32,-0.39,2.35,-0.86,-10.38,-4.22,2.64,-0.20,2.59,-0.71,-3.85,-6.63,3.05,-0.07,1.70,-0.44,-0.44,0.43,0.82,0.00,0.00,0.00,L
20.043,51,255,0,255,240,-1.95,5.05,8.46,-0.04,-0.10,0.11,-0.41,1.17,8.53,-0.00,-0.10,0.01,-6.99,-2.69,6.06,-0.47,2.17,-0.68,-8.94,-3.90,1.74,-0.05,2.40,-0.68,-5.00,-4.96,4.99,0.29,2.08,-0.30,-0.43,0.48,0.78,0.00,0.00,0.00,L
20.093,54,255,0,255,245,-1.86,5.25,8.56,-0.02,0.01,0.01,-1.54,2.81,9.56,-0.03,0.14,-0.05,-8.77,-2.62,7.78,-0.21,2.34,-0.78,-10.33,-4.24,0.52,-0.00,2.01,-0.62,-7.01,-6.14,2.95,-0.08,1.95,-0.29,-0.42,0.45,0.81,0.00,0.00,0.00,L
20.144,55,255,0,255,250,-1.96,4.55,8.45,-0.06,-0.02,0.12,-1.28,1.58,9.00,-0.06,0.18,0.01,-7.09,-4.11,6.11,-0.18,1.67,-0.47,-6.45,-7.15,-0.34,0.22,1.43,-0.54,-5.62,-8.58,2.82,0.24,2.07,0.05,-0.42,0.49,0.77,0.00,0.00,0.00,L
20.195,58,255,0,255,253,-1.84,5.51,8.43,0.02,0.10,-0.02,-2.15,3.85,10.11,-0.23,0.17,-0.04,-8.54,-3.86,3.39,-0.07,1.96,-0.49,-9.47,-4.67,-1.48,0.05,1.86,-0.59,-7.11,-5.95,2.75,0.03,1.89,0.08,-0.41,0.45,0.81,0.00,0.00,0.00,L
20.246,60,255,0,255,255,-1.59,4.75,8.04,-0.06,-0.02,0.06,-1.21,1.70,9.03,-0.08,-0.01,0.05,-8.36,-4.35,2.66,-0.01,1.33,-0.35,-6.91,-6.03,-1.58,0.14,1.08,-0.20,-8.76,-4.75,2.74,-0.19,1.48,0.08,-0.43,0.48,0.77,0.00,0.00,0.00,L
20.297,60,255,0,255,255,-1.24,4.85,8.22,-0.05,-0.01,-0.02,-2.15,3.80,9.67,0.10,0.20,-0.16,-9.87,-3.63,2.94,-0.06,1.14,-0.26,-6.70,-8.30,-2.92,-0.25,1.00,-0.34,-8.77,-7.43,2.03,-0.38,1.14,-0.08,-0.43,0.46,0.80,0.00,0.00,0.00,L
20.348,59,255,0,255,255,-1.90,4.67,8.22,-0.08,-0.02,0.13,-1.91,2.07,9.74,-0.13,-0.05,0.08,-9.58,-4.36,2.55,0.06,0.74,-0.23,-9.12,-4.99,-1.59,0.16,0.83,-0.30,-7.58,-5.72,0.41,0.06,1.03,0.07,-0.42,0.48,0.77,0.00,0.00,0.00,L
20.399,57,255,0,255,255,-1.58,4.75,8.48,-0.07,0.00,0.02,-1.54,3.28,9.08,-0.10,0.11,0.03,-9.54,-4.44,2.57,-0.11,1.17,-0.30,-8.00,-6.25,-2.40,-0.11,0.77,-0.23,-8.80,-6.35,0.81,-0.14,0.60,-0.17,-0.43,0.45,0.79,0.00,0.00,0.00,L
20.45,61,255,0,255,255,-2.06,5.08,8.78,-0.02,-0.03,0.04,-1.90,1.21,9.57,-0.28,-0.05,0.07,-8.32,-4.12,1.13,-0.00,0.30,-0.18,-7.03,-5.68,-3.19,0.21,0.44,-0.12,-7.11,-6.07,0.55,0.07,0.42,-0.04,-0.44,0.47,0.78,0.00,0.00,0.00,L
20.501,61,255,0,255,255,-1.53,4.98,8.10,0.00,0.05,0.04,-1.71,3.09,9.28,-0.14,0.21,0.02,-8.44,-4.81,2.15,-0.11,0.79,-0.22,-6.78,-5.46,-3.48,-0.01,0.51,-0.11,-6.48,-6.55,-0.42,-0.27,0.49,0.03,-0.42,0.48,0.79,0.00,0.00,0.00,L
20.553,63,255,0,255,255,-1.91,5.07,8.57,0.00,0.01,0.02,-1.76,1.46,9.28,-0.25,0.28,-0.02,-8.37,-4.87,1.36,-0.07,0.21,0.00,-8.13,-5.48,-2.78,-0.01,-0.13,0.03,-8.27,-5.21,-0.26,-0.02,0.02,0.17,-0.44,0.47,0.77,0.00,0.00,0.00,L
20.603,63,255,0,255,255,-1.89,5.07,8.69,0.08,0.03,0.01,-2.60,2.40,9.65,-0.11,0.50,-0.10,-9.28,-4.39,0.03,0.03,0.04,0.07,-6.69,-5.09,-4.41,-0.01,-0.66,0.34,-10.07,-5.44,3.00,-0.08,-0.16,0.09,-0.42,0.47,0.79,0.00,0.00,0.00,L
20.654,63,255,0,255,255,-1.41,4.86,8.25,-0.00,-0.02,0.04,-1.79,2.11,6.96,-0.19,0.56,-0.30,-8.15,-4.21,0.45,-0.06,0.29,-0.08,-6.97,-6.48,-3.35,-0.06,-0.41,-0.09,-7.47,-5.73,-0.65,0.01,-0.24,-0.03,-0.43,0.49,0.78,0.00,0.00,0.00,L
20.705,62,255,255,255,255,-1.69,5.13,8.34,-0.01,0.00,0.02,-9.79,5.68,12.47,-1.64,6.74,-2.49,-8.59,-4.50,-0.00,-0.13,1.43,-0.32,-8.35,-5.57,-2.94,0.07,-0.52,0.04,-8.36,-6.35,-0.15,0.15,-0.58,-0.03,-0.42,0.46,0.78,0.00,0.00,0.00,L
20.756,62,255,0,255,255,-1.47,4.59,8.29,-0.01,-0.07,0.13,-6.88,1.36,6.40,-1.22,3.40,-2.13,-8.12,-4.91,-0.03,-0.00,1.56,-0.38,-6.76,-5.40,-2.23,0.11,-0.27,-0.04,-7.13,-5.62,0.78,-0.01,-0.26,0.03,-0.45,0.49,0.77,0.00,0.00,0.00,L
20.807,62,255,0,255,253,-1.45,5.75,8.34,0.02,0.09,-0.00,-7.92,-0.59,8.07,0.06,4.69,-2.36,-7.58,-5.06,-1.25,-0.01,2.39,-0.47,-8.63,-5.44,-2.60,-0.04,-0.26,-0.06,-8.48,-6.05,1.04,-0.04,-0.43,-0.10,-0.44,0.47,0.80,0.00,0.00,0.00,L
20.859,66,255,0,255,252,-1.63,4.44,8.25,-0.04,0.03,0.11,-5.84,-2.55,1.17,0.06,3.57,-1.66,-9.67,-5.74,-1.77,-0.02,2.12,-0.46,-6.80,-5.38,-3.45,0.04,-0.04,-0.02,-7.70,-5.45,0.31,-0.13,-0.04,0.00,-0.44,0.49,0.76,0.00,0.00,0.00,L
20.909,68,255,0,255,250,-1.53,5.45,8.46,-0.05,0.23,0.14,-11.73,-1.43,4.41,0.19,2.20,-1.09,-8.47,-5.20,-2.57,-0.01,1.52,-0.45,-7.91,-5.28,-2.83,-0.05,-0.11,-0.10,-8.04,-7.39,1.09,-0.30,-0.17,0.23,-0.43,0.48,0.78,0.00,0.00,0.00,L
20.96,71,255,255,255,249,-1.29,4.96,7.99,-0.06,0.03,0.09,-8.14,-2.28,0.83,0.27,2.57,-1.08,-8.57,-4.43,-1.62,0.04,1.99,-0.26,-8.28,-6.19,-2.26,-0.12,0.08,-0.13,-8.51,-5.97,0.88,-0.16,-0.03,-0.04,-0.45,0.48,0.76,0.00,0.00,0.00,L
21.011,71,255,0,255,246,-2.09,5.29,8.86,-0.03,0.02,0.08,-9.77,-2.97,1.58,0.12,0.89,-0.56,-7.70,-5.68,-3.50,-0.01,0.38,-0.15,-7.80,-5.56,-2.41,0.04,-0.15,-0.01,-7.66,-6.07,0.89,-0.05,-0.21,-0.02,-0.44,0.48,0.77,0.00,0.00,0.00,L
21.063,69,255,0,255,248,-1.56,5.02,8.38,-0.02,0.03,0.00,-7.87,-3.16,-0.87,0.13,1.33,-0.72,-7.81,-5.00,-5.80,-0.19,0.71,-0.39,-8.10,-5.71,-2.73,-0.02,0.06,-0.10,-8.23,-6.00,0.79,-0.14,-0.02,0.03,-0.44,0.48,0.77,0.00,0.00,0.00,L
21.114,71,255,0,255,248,-2.13,4.67,8.72,-0.05,0.02,0.10,-10.06,-3.44,0.81,0.06,0.24,-0.28,-6.58,-5.80,-4.02,0.05,-0.04,-0.01,-7.14,-5.45,-2.52,0.11,-0.07,0.03,-7.31,-5.82,0.59,0.13,-0.04,0.06,-0.45,0.48,0.77,0.00,0.00,0.00,L
21.164,72,255,0,255,246,-1.32,5.30,8.27,-0.02,0.05,-0.02,-10.42,-3.70,0.48,-0.04,0.67,-0.38,-7.62,-5.66,-4.53,-0.07,0.41,-0.17,-7.81,-6.13,-2.97,-0.04,-0.03,-0.13,-8.26,-6.24,0.49,-0.02,-0.10,-0.06,-0.43,0.47,0.79,0.00,0.00,0.00,L
21.216,71,255,0,255,244,-1.91,4.78,8.61,-0.04,-0.01,0.06,-8.66,-4.10,-0.43,0.07,0.48,-0.40,-6.44,-6.25,-3.64,0.02,-0.00,0.01,-7.24,-5.68,-1.99,0.04,-0.12,0.10,-6.74,-5.76,0.23,0.09,-0.01,0.05,-0.45,0.49,0.76,0.00,0.00,0.00,L
21.266,72,255,0,255,244,-1.10,5.16,8.01,-0.04,0.16,0.02,-9.26,-3.84,-1.36,-0.10,0.52,-0.35,-7.56,-6.22,-4.90,-0.03,0.09,-0.08,-8.12,-6.73,-2.60,0.02,-0.13,-0.06,-8.08,-6.24,0.63,-0.05,-0.04,-0.01,-0.44,0.47,0.79,0.00,0.00,0.00,L
21.317,76,255,0,255,244,-1.47,5.09,7.63,-0.08,0.21,0.13,-8.28,-3.92,-0.90,0.05,0.37,-0.27,-6.47,-5.43,-3.93,0.03,0.10,-0.03,-7.14,-5.46,-2.36,0.04,0.00,0.03,-7.66,-6.01,0.85,0.01,0.02,0.02,-0.44,0.49,0.76,0.00,0.00,0.00,L
21.368,85,255,0,255,244,-1.91,5.29,8.72,-0.11,0.41,0.16,-9.61,-4.27,-1.25,-0.04,0.20,-0.22,-6.76,-5.94,-4.44,0.04,-0.03,-0.02,-7.74,-5.81,-2.14,0.04,-0.19,0.04,-7.74,-6.23,0.84,0.05,-0.23,-0.02,-0.45,0.47,0.77,0.00,0.00,0.00,L
21.419,87,255,0,255,241,-1.61,4.87,8.25,-0.01,-0.09,-0.01,-8.42,-3.74,-1.30,0.02,0.09,-0.12,-6.79,-5.68,-4.00,0.00,0.13,-0.05,-7.95,-5.64,-2.31,0.03,0.01,-0.02,-7.78,-5.96,0.82,0.06,0.04,-0.06,-0.44,0.48,0.77,0.00,0.00,0.00,L
21.47,85,255,0,255,241,-1.92,4.97,8.45,-0.01,0.01,0.03,-8.78,-4.37,-1.21,-0.04,-0.06,-0.02,-6.68,-6.10,-4.10,-0.00,-0.02,0.01,-7.79,-5.78,-1.93,-0.02,-0.11,0.11,-7.63,-6.23,1.35,0.04,-0.22,0.08,-0.46,0.47,0.76,0.00,0.00,0.00,L
21.521,85,255,0,255,238,-1.70,4.98,8.45,0.05,0.02,-0.04,-9.48,-4.16,-1.10,-0.10,-0.07,0.07,-7.66,-6.08,-4.69,-0.02,-0.10,0.04,-8.22,-5.67,-2.85,0.07,-0.24,0.05,-8.22,-6.00,0.66,0.01,-0.20,-0.06,-0.44,0.47,0.79,0.00,0.00,0.00,L
21.572,82,255,0,255,237,-1.93,4.80,8.47,0.04,-0.15,-0.04,-9.53,-3.65,0.00,-0.17,-0.89,0.39,-6.89,-5.81,-3.53,-0.04,-0.28,0.12,-8.07,-5.45,-1.64,-0.02,-0.41,0.20,-7.86,-6.35,1.70,0.02,-0.48,0.09,-0.46,0.48,0.76,0.00,0.00,0.00,L
21.623,78,255,0,255,237,-1.81,4.98,8.53,0.21,-0.38,-0.23,-10.90,-3.29,1.08,-0.65,-4.15,1.93,-10.15,-5.96,-2.62,0.17,-2.81,0.86,-11.09,-5.90,2.62,-0.16,-3.24,1.00,-8.80,-7.89,2.42,0.03,-2.33,-0.10,-0.47,0.45,0.78,0.00,0.00,0.00,L
21.674,71,255,0,255,230,-1.12,4.72,7.82,0.30,-0.31,-0.22,-9.58,-3.01,2.41,-0.17,-7.84,3.59,-9.70,-3.74,-1.49,0.46,-8.29,1.95,-6.63,-9.65,0.58,-0.22,-4.13,1.36,-6.34,-6.96,-0.04,0.25,-3.04,0.13,-0.44,0.53,0.75,0.00,0.00,0.00,L
21.725,65,255,0,255,222,-1.73,5.77,8.30,0.20,-0.01,-0.13,-16.69,-0.02,8.69,0.49,-4.12,1.71,-11.26,-4.04,2.19,0.18,-6.49,1.41,-10.37,-3.85,3.20,0.24,-3.48,1.09,-7.63,-6.20,3.15,0.26,-1.91,0.23,-0.40,0.47,0.79,0.00,0.00,0.00,L
21.777,63,255,0,255,214,-1.46,4.84,7.96,0.06,0.01,-0.10,-10.37,-0.57,6.22,0.65,-4.17,1.82,-8.26,-4.28,3.18,0.29,-6.68,1.73,-11.69,-3.08,4.18,0.33,-5.84,1.88,-9.23,-5.80,5.89,0.01,-3.25,0.55,-0.45,0.50,0.76,0.00,0.00,0.00,L
21.827,61,255,0,255,200,-1.66,5.47,8.11,0.20,0.13,-0.11,-6.14,1.21,7.11,0.60,-2.33,1.32,-5.72,-3.12,4.13,0.32,-5.02,1.39,-8.32,-2.91,5.15,-0.06,-3.77,1.32,-5.88,-5.89,5.25,-0.21,-2.82,0.43,-0.41,0.48,0.80,0.00,0.00,0.00,L
21.878,58,255,0,255,191,-2.18,6.01,8.42,0.04,-0.01,-0.03,-4.57,1.05,8.26,0.28,-1.53,0.79,-4.08,-2.63,5.67,0.27,-2.25,0.61,-4.71,-2.36,5.68,0.15,-3.11,1.00,-4.33,-5.26,5.05,-0.00,-1.75,0.23,-0.41,0.49,0.78,0.00,0.00,0.00,L
21.929,57,255,255,255,181,-1.56,5.42,8.11,0.04,0.10,-0.04,-3.90,1.44,8.59,0.26,-1.24,0.66,-5.41,-2.15,8.34,0.06,-1.98,0.65,-6.37,-1.87,8.30,0.01,-2.09,0.87,-4.96,-5.54,6.98,-0.09,-1.33,0.29,-0.41,0.48,0.80,0.00,0.00,0.00,L
21.98,55,255,0,255,173,-2.28,5.56,8.48,0.01,0.03,-0.01,-4.62,2.11,9.14,0.12,-1.64,0.62,-4.38,-3.23,9.95,0.07,-2.95,0.54,-4.11,-2.32,8.26,0.06,-2.74,0.73,-4.36,-6.00,6.70,-0.01,-2.39,0.23,-0.41,0.47,0.80,0.00,0.00,0.00,L
22.031,55,255,0,255,162,-1.59,5.21,7.81,0.04,0.08,-0.04,-2.32,1.58,8.85,0.42,-1.15,0.27,-2.56,-1.13,8.58,0.13,-1.25,0.29,-3.22,-0.81,8.81,0.12,-1.32,0.50,-3.18,-5.28,6.49,0.02,-1.19,0.30,-0.41,0.48,0.79,0.00,0.00,0.00,L
22.082,55,255,0,255,151,-2.13,5.80,8.21,-0.00,0.12,0.01,-3.39,3.31,9.51,0.15,-0.78,0.27,-2.78,-1.96,9.69,0.02,-1.09,0.37,-3.43,-1.84,9.69,-0.11,-1.16,0.27,-3.63,-6.20,7.53,-0.04,-1.23,0.16,-0.41,0.45,0.82,0.00,0.00,0.00,L
22.133,53,255,0,255,145,-1.46,5.11,7.54,-0.02,0.01,-0.01,-1.49,1.54,8.52,0.37,-1.03,0.19,-1.09,-1.93,8.49,0.25,-0.93,0.14,-2.85,-1.18,9.64,0.22,-0.63,0.20,-2.87,-5.06,7.80,0.06,-0.76,0.25,-0.42,0.48,0.79,0.00,0.00,0.00,L
22.184,53,255,0,255,136,-1.95,5.93,8.21,0.03,0.13,-0.03,-3.10,3.52,10.53,0.16,-0.60,0.14,-2.92,-1.34,10.74,-0.03,-1.19,0.32,-2.76,-1.72,10.27,-0.13,-1.14,0.33,-2.87,-5.58,7.78,-0.02,-1.02,0.16,-0.40,0.44,0.83,0.00,0.00,0.00,L
22.235,51,255,0,255,128,-1.92,5.23,7.90,0.02,-0.03,-0.00,-0.67,1.41,8.92,0.11,-0.62,0.15,0.25,-2.38,7.54,0.36,-1.39,0.10,-0.32,-1.90,7.93,0.17,-0.29,0.11,-1.69,-4.96,7.10,0.07,0.01,0.05,-0.41,0.47,0.79,0.00,0.00,0.00,L
22.286,51,255,0,255,123,-1.66,5.73,7.80,0.06,0.13,-0.04,-2.00,3.91,9.92,0.11,0.04,-0.13,-2.93,-0.64,12.16,0.05,-0.42,0.20,-2.60,-1.06,10.86,-0.05,-0.36,0.22,-2.95,-6.06,8.74,-0.12,-0.10,0.08,-0.41,0.42,0.83,0.00,0.00,0.00,L
22.337,56,255,0,255,122,-2.27,5.39,8.13,0.01,-0.04,0.04,-0.41,1.01,8.62,-0.06,-0.32,0.04,0.35,-2.59,9.26,0.09,-0.75,-0.06,-0.79,-1.61,8.84,0.12,-0.32,0.04,-2.00,-5.16,7.72,0.06,-0.01,0.05,-0.41,0.46,0.79,0.00,0.00,0.00,L
22.388,49,255,0,255,123,-2.00,5.87,8.13,0.03,0.03,-0.02,-1.21,3.12,9.30,0.11,-0.06,-0.20,-2.11,0.18,11.77,0.38,-0.23,-0.09,-2.07,-0.37,10.42,0.06,-0.31,0.17,-2.81,-5.02,8.51,-0.04,-0.07,0.04,-0.40,0.43,0.83,0.00,0.00,0.00,L
22.439,48,255,0,255,120,-2.36,5.45,8.30,-0.01,0.00,0.04,-0.83,2.15,9.05,-0.09,-0.11,0.02,0.48,-2.34,8.64,0.04,-0.28,-0.01,-0.70,-1.76,8.87,0.03,-0.12,-0.01,-1.54,-5.09,7.26,0.02,0.02,-0.02,-0.40,0.45,0.80,0.00,0.00,0.00,L
22.49,49,255,0,255,122,-1.92,5.86,8.12,0.02,0.04,-0.04,-1.13,3.15,9.67,-0.04,0.09,-0.09,-1.38,-0.75,12.07,0.02,-0.07,0.00,-2.05,-0.62,10.59,0.08,-0.15,0.08,-2.47,-5.02,8.32,-0.02,-0.06,0.02,-0.40,0.44,0.83,0.00,0.00,0.00,L
22.541,48,255,0,255,123,-2.01,5.51,8.11,-0.01,-0.00,0.03,-0.44,2.12,8.83,-0.05,-0.02,-0.03,0.57,-1.52,8.63,-0.01,0.05,0.02,-1.02,-1.13,9.27,-0.00,0.08,-0.02,-1.83,-4.89,7.52,-0.03,0.08,0.06,-0.40,0.46,0.80,0.00,0.00,0.00,L
22.592,48,255,0,255,123,-2.30,5.63,8.34,-0.02,0.04,-0.06,-1.26,2.72,9.65,-0.09,0.06,-0.07,-1.17,-1.79,11.43,0.07,0.29,-0.15,-1.79,-1.08,10.33,-0.07,-0.05,0.01,-2.61,-5.76,8.41,-0.06,-0.07,-0.00,-0.40,0.43,0.83,0.00,0.00,0.00,L
22.643,47,255,0,255,123,-2.02,5.57,7.96,0.01,0.03,0.01,-0.65,1.99,9.06,0.05,0.00,-0.03,0.79,-2.41,7.36,0.52,1.22,-0.55,-0.66,-1.85,8.63,0.12,0.26,-0.19,-2.15,-5.20,7.93,0.08,0.01,0.03,-0.40,0.45,0.81,0.00,0.00,0.00,L
22.695,49,255,0,255,124,-2.22,5.60,8.01,-0.01,0.06,-0.02,-1.34,2.71,9.84,0.04,0.30,-0.12,-3.33,0.02,12.08,-0.28,2.26,-0.72,-2.45,-0.61,11.17,-0.21,0.56,-0.10,-2.17,-4.98,8.01,-0.09,0.01,0.05,-0.38,0.45,0.82,0.00,0.00,0.00,L
22.745,47,255,0,255,124,-2.02,5.65,8.03,-0.06,0.04,-0.06,-1.48,2.79,9.67,0.04,-0.07,0.06,-1.87,-2.54,9.49,-0.24,1.06,-0.16,-1.58,-1.91,9.46,-0.05,-0.23,0.02,-2.27,-5.61,8.07,-0.03,-0.20,-0.00,-0.42,0.44,0.81,0.00,0.00,0.00,L
22.797,49,255,0,255,124,-2.04,5.11,7.72,-0.01,0.07,-0.03,-1.22,2.88,9.25,0.15,-0.01,0.02,-2.97,-1.83,10.07,-0.40,2.37,-0.65,-1.09,-1.13,9.27,0.03,0.42,-0.23,-2.04,-5.38,8.02,-0.03,-0.05,-0.01,-0.38,0.45,0.82,0.00,0.00,0.00,L
22.847,47,255,0,255,123,-1.78,5.28,7.70,-0.06,0.02,-0.08,-0.96,2.99,9.26,-0.02,0.14,-0.09,-5.29,-1.10,10.72,-0.16,0.61,-0.11,-2.30,-0.60,10.66,0.05,0.09,0.04,-2.73,-5.42,8.90,-0.04,-0.01,0.15,-0.41,0.45,0.81,0.00,0.00,0.00,L
22.898,48,255,0,255,126,-2.37,5.43,8.19,-0.00,-0.01,-0.06,-1.77,2.68,9.85,-0.02,-0.01,-0.04,-3.83,-1.84,8.88,-0.01,-0.16,0.03,-1.30,-1.39,9.09,0.07,-0.11,-0.04,-2.31,-5.38,8.13,-0.01,-0.04,-0.05,-0.41,0.43,0.81,0.00,0.00,0.00,L
22.949,48,255,0,255,126,-1.81,5.67,7.55,0.01,0.00,-0.05,-0.81,2.97,8.92,0.03,0.04,-0.10,-5.09,-0.45,9.34,-0.03,0.14,-0.05,-2.32,-0.55,10.17,0.04,0.05,-0.05,-2.58,-5.08,8.64,-0.07,0.05,0.06,-0.39,0.44,0.82,0.00,0.00,0.00,L
23.0,48,255,0,255,126,-2.44,5.69,8.14,-0.02,0.00,0.00,-1.26,2.26,9.41,-0.20,-0.05,0.18,-3.20,-2.88,8.43,-0.16,-0.06,-0.03,-0.21,-2.19,8.16,-0.08,-0.24,-0.02,-1.29,-5.53,7.04,-0.03,-0.15,-0.04,-0.41,0.45,0.81,0.00,0.00,0.00,L
23.051,48,255,0,255,126,-1.78,5.17,7.68,-0.00,0.05,-0.07,-1.05,3.06,9.36,0.09,0.23,-0.18,-4.40,-1.63,9.56,0.02,0.38,-0.04,-2.98,-0.56,11.32,0.05,0.15,-0.02,-2.97,-5.13,8.88,0.00,-0.00,0.06,-0.40,0.44,0.83,0.00,0.00,0.00,L
23.102,48,255,0,255,126,-2.52,5.70,8.21,-0.01,-0.02,0.03,-1.56,2.51,9.55,-0.08,-0.11,0.07,-3.58,-2.26,8.62,-0.02,-0.17,-0.06,-0.90,-1.61,8.84,-0.03,-0.22,-0.01,-1.47,-5.03,7.14,-0.01,-0.06,-0.08,-0.40,0.45,0.81,0.00,0.00,0.00,L
23.153,47,255,0,255,127,-1.93,4.90,7.99,0.00,0.03,-0.07,-1.02,2.70,9.30,0.02,0.10,-0.14,-5.72,-1.09,9.85,-0.05,0.78,-0.25,-2.44,-0.47,10.60,-0.00,0.42,-0.09,-3.33,-5.10,9.61,-0.11,0.12,0.09,-0.40,0.45,0.81,0.00,0.00,0.00,L
23.204,47,255,0,255,126,-2.43,5.52,8.13,-0.06,0.02,0.00,-1.95,2.91,9.99,-0.02,-0.01,0.07,-2.92,-2.27,8.60,-0.11,0.26,-0.16,-0.91,-1.90,8.69,-0.09,-0.04,-0.01,-1.39,-5.66,7.38,-0.04,-0.11,-0.04,-0.40,0.45,0.82,0.00,0.00,0.00,L
23.255,47,255,0,255,127,-2.18,4.77,8.49,-0.11,-0.03,-0.09,-0.91,2.83,9.21,0.08,0.06,-0.18,-5.56,-1.15,9.11,-0.01,0.79,-0.30,-2.73,-0.66,10.61,-0.11,0.19,-0.02,-2.32,-5.78,8.85,-0.14,-0.12,0.10,-0.42,0.44,0.82,0.00,0.00,0.00,L
23.306,48,255,255,255,127,-2.05,5.51,7.91,-0.04,-0.04,-0.07,-1.33,2.79,9.45,0.13,0.02,-0.11,-4.87,-2.03,7.91,-0.09,0.93,-0.33,-1.99,-1.24,9.61,-0.05,0.33,-0.05,-2.09,-5.79,8.46,-0.05,-0.04,0.02,-0.41,0.45,0.82,0.00,0.00,0.00,L
23.357,47,255,0,255,131,-2.25,5.43,8.21,-0.06,-0.02,-0.12,-1.01,2.79,8.95,0.10,0.09,-0.18,-5.83,-2.18,8.14,-0.41,1.33,-0.47,-2.71,-0.72,10.03,-0.06,0.67,-0.17,-2.86,-5.61,8.95,-0.09,-0.01,0.04,-0.41,0.43,0.82,0.00,0.00,0.00,L
23.408,47,255,255,255,131,-2.52,5.37,8.36,-0.04,-0.03,-0.06,-1.69,2.84,9.53,0.27,-0.00,-0.22,-5.76,-2.13,8.40,0.06,0.90,-0.36,-1.73,-2.01,9.10,-0.04,0.34,-0.15,-1.26,-5.48,6.94,0.01,-0.02,-0.05,-0.41,0.46,0.80,0.00,0.00,0.00,L
23.46,50,255,255,255,131,-2.28,5.30,8.24,0.02,0.03,-0.18,-1.48,3.31,9.28,0.04,0.03,-0.14,-7.45,-2.29,8.28,-0.05,1.18,-0.43,-3.55,-0.37,10.27,0.04,0.59,-0.21,-2.56,-4.79,8.42,-0.07,0.07,0.00,-0.39,0.43,0.81,0.00,0.00,0.00,L
23.51,48,255,0,255,132,-2.28,4.99,7.81,-0.04,0.07,0.06,-1.17,3.84,9.14,0.11,0.10,-0.07,-5.69,-3.52,7.77,-0.07,0.58,-0.11,-2.56,-2.14,9.50,-0.03,0.26,-0.04,-2.05,-5.89,8.04,-0.03,0.11,0.03,-0.40,0.46,0.81,0.00,0.00,0.00,L
23.561,47,255,255,255,130,-2.21,5.16,8.14,0.02,0.09,-0.02,-1.85,4.75,9.50,0.05,0.00,-0.03,-7.66,-2.54,8.02,-0.02,0.71,-0.27,-3.39,-1.26,9.86,0.00,0.35,-0.11,-2.40,-5.22,8.24,-0.01,0.04,-0.04,-0.39,0.44,0.82,0.00,0.00,0.00,L
23.613,48,255,0,255,134,-2.13,4.60,7.76,-0.01,0.06,-0.02,-0.69,3.18,8.51,0.18,0.22,-0.19,-8.40,-2.79,7.90,0.04,0.92,-0.22,-4.42,-0.75,10.25,-0.01,0.53,-0.08,-2.98,-5.54,9.30,-0.14,0.26,0.07,-0.39,0.45,0.81,0.00,0.00,0.00,L
23.663,48,255,0,255,132,-2.50,5.40,8.08,-0.04,0.02,0.01,-2.49,3.94,9.77,0.08,0.01,-0.06,-6.30,-2.88,5.66,0.11,0.23,-0.10,-2.70,-2.00,8.55,0.03,0.10,-0.04,-1.67,-5.51,7.40,0.01,-0.13,-0.00,-0.41,0.44,0.82,0.00,0.00,0.00,L
23.714,48,255,0,255,134,-2.52,5.38,8.39,0.01,0.04,-0.02,-1.88,2.92,9.00,0.16,0.21,-0.21,-6.52,-2.72,6.77,0.08,0.96,-0.17,-3.51,-1.46,9.15,0.02,0.61,-0.11,-2.11,-5.22,7.93,-0.01,0.07,-0.02,-0.40,0.45,0.81,0.00,0.00,0.00,L
23.765,49,255,0,255,135,-2.52,5.18,8.15,-0.02,0.07,0.06,-2.23,3.58,9.46,-0.01,0.13,-0.04,-6.10,-3.21,5.43,0.05,0.52,-0.14,-2.11,-2.60,6.98,0.08,0.46,-0.05,-1.58,-5.53,7.37,0.01,0.02,-0.01,-0.39,0.45,0.82,0.00,0.00,0.00,L
23.816,48,255,255,255,135,-2.20,5.45,7.91,-0.02,0.07,-0.00,-2.05,3.94,8.95,0.05,0.33,-0.21,-7.76,-2.77,5.46,-0.08,1.29,-0.23,-4.70,-1.25,9.35,0.09,0.94,-0.17,-2.48,-4.85,8.20,-0.03,0.06,-0.03,-0.40,0.43,0.83,0.00,0.00,0.00,L
23.867,49,255,0,255,139,-2.71,5.04,8.16,-0.05,-0.04,0.04,-2.34,2.90,8.45,0.15,0.64,-0.49,-7.24,-3.43,5.09,0.05,1.18,-0.28,-4.31,-1.63,8.92,0.02,0.86,-0.24,-2.01,-5.27,8.00,0.02,0.10,-0.05,-0.41,0.45,0.81,0.00,0.00,0.00,L
23.918,51,255,0,255,138,-2.51,5.48,8.18,-0.01,0.01,0.01,-2.86,4.01,9.19,0.12,0.23,-0.30,-9.10,-3.12,5.09,0.04,0.55,-0.19,-5.84,-0.99,9.85,-0.04,0.32,-0.10,-2.69,-5.40,8.61,-0.07,0.04,0.00,-0.40,0.43,0.82,0.00,0.00,0.00,L
23.969,48,255,0,255,139,-2.49,5.19,8.07,-0.02,-0.02,0.04,-4.53,3.67,8.38,-0.06,0.81,-0.48,-7.45,-3.53,3.79,-0.00,1.47,-0.33,-4.52,-1.53,8.11,-0.04,1.25,-0.30,-2.37,-5.61,8.15,-0.01,0.25,-0.06,-0.39,0.44,0.82,0.00,0.00,0.00,L
24.02,50,255,0,255,143,-2.19,5.23,7.99,-0.03,0.01,-0.01,-3.57,3.58,9.28,0.07,0.99,-0.41,-9.33,-2.87,5.32,-0.00,1.05,-0.26,-6.11,-1.40,9.37,-0.05,0.62,-0.15,-2.62,-5.39,8.45,-0.03,0.08,-0.01,-0.41,0.44,0.81,0.00,0.00,0.00,L
24.071,51,255,0,255,146,-2.38,5.26,8.07,-0.02,-0.01,0.06,-3.87,3.60,8.14,-0.04,0.21,-0.06,-7.18,-4.35,3.28,-0.02,0.49,-0.12,-3.27,-2.91,5.84,0.05,0.52,-0.12,-1.53,-5.67,7.03,-0.05,0.03,-0.07,-0.40,0.46,0.81,0.00,0.00,0.00,L
24.122,50,255,0,255,146,-2.10,5.29,7.84,0.00,0.07,-0.03,-4.94,4.23,9.19,-0.11,1.47,-0.64,-10.51,-3.31,3.59,-0.01,1.61,-0.29,-7.76,-1.18,9.83,0.00,1.07,-0.27,-3.02,-5.70,8.79,-0.10,0.21,0.10,-0.39,0.43,0.83,0.00,0.00,0.00,L
24.173,50,255,0,255,149,-2.62,5.18,8.26,-0.04,-0.04,0.07,-4.87,2.83,8.48,-0.05,0.01,0.01,-7.83,-3.96,2.76,0.02,0.05,-0.04,-4.85,-2.45,6.47,0.08,0.02,-0.06,-1.53,-4.76,6.72,0.04,-0.05,-0.11,-0.41,0.46,0.80,0.00,0.00,0.00,L
24.224,49,255,0,255,151,-2.27,5.62,8.02,-0.01,0.02,-0.01,-4.38,2.01,5.41,-0.16,1.82,-0.70,-9.51,-3.13,2.26,-0.12,1.55,-0.35,-8.17,-1.28,8.25,-0.03,1.43,-0.36,-3.17,-5.38,8.18,-0.04,0.41,-0.05,-0.41,0.44,0.81,0.00,0.00,0.00,L
24.275,50,255,0,255,153,-2.92,5.12,8.49,-0.01,-0.08,0.06,-4.94,1.61,8.37,-0.12,0.26,-0.18,-7.21,-3.44,1.44,0.04,0.11,-0.09,-4.97,-2.34,5.82,0.06,0.20,-0.06,-2.05,-5.33,7.61,0.06,0.04,-0.07,-0.42,0.46,0.79,0.00,0.00,0.00,L
24.326,51,255,0,255,154,-2.07,5.60,7.96,-0.01,0.07,-0.07,-5.94,4.18,7.27,-0.06,0.95,-0.44,-10.32,-4.10,1.87,-0.12,1.56,-0.33,-8.23,-2.20,8.29,-0.11,1.23,-0.34,-3.29,-5.91,8.63,-0.03,0.37,-0.03,-0.41,0.44,0.84,0.00,0.00,0.00,L
24.377,50,255,0,255,158,-2.22,4.96,7.95,0.00,-0.04,0.05,-5.39,2.68,7.60,-0.01,0.67,-0.32,-8.71,-3.96,2.52,-0.03,0.84,-0.18,-6.79,-2.09,6.81,0.02,0.76,-0.20,-2.27,-5.26,7.18,0.04,0.36,-0.03,-0.40,0.47,0.79,0.00,0.00,0.00,L
24.428,50,255,0,255,162,-2.37,5.70,8.20,-0.01,0.02,-0.01,-6.21,2.75,6.89,-0.13,0.74,-0.35,-9.04,-4.27,0.70,-0.07,0.57,-0.16,-6.54,-2.48,5.76,-0.01,0.64,-0.16,-2.68,-5.58,7.72,-0.02,0.26,-0.07,-0.41,0.45,0.81,0.00,0.00,0.00,L
24.479,49,255,0,255,162,-2.06,5.32,7.82,0.02,-0.01,-0.04,-6.04,3.21,6.81,0.02,0.22,-0.26,-9.99,-3.75,0.70,-0.01,-0.03,-0.02,-8.14,-2.07,6.80,-0.09,-0.07,0.10,-3.70,-6.43,9.20,-0.05,0.02,0.11,-0.41,0.45,0.82,0.00,0.00,0.00,L
24.531,49,255,0,255,160,-2.04,4.95,7.41,0.02,-0.05,0.02,-5.88,2.73,6.94,-0.01,-0.04,-0.03,-8.92,-3.49,1.11,-0.15,-0.03,0.05,-7.47,-2.00,6.58,0.07,-0.14,0.13,-2.20,-5.17,7.07,0.02,0.01,0.10,-0.40,0.47,0.80,0.00,0.00,0.00,L
24.581,49,255,0,255,172,-2.61,5.75,8.40,-0.00,-0.03,0.02,-7.64,3.66,8.12,-0.10,-0.53,0.14,-10.29,-4.06,1.82,-0.05,-0.96,0.14,-8.56,-2.30,8.44,0.08,-1.24,0.37,-3.26,-5.94,8.53,-0.10,-0.23,-0.03,-0.41,0.43,0.82,0.00,0.00,0.00,L
24.632,50,255,0,255,158,-1.93,5.13,7.56,0.05,-0.00,0.05,-4.11,3.59,6.26,-0.13,-0.16,0.09,-8.20,-3.74,1.81,-0.08,0.10,0.00,-6.00,-1.86,6.84,0.05,0.12,0.01,-2.63,-4.93,7.92,-0.03,0.07,0.13,-0.38,0.48,0.79,0.00,0.00,0.00,L
24.683,50,255,0,255,155,-2.56,5.47,8.39,-0.04,0.08,-0.05,-7.94,3.50,8.50,-0.12,-0.17,0.09,-9.59,-4.32,2.07,-0.03,-0.45,0.06,-7.10,-2.04,8.65,0.01,-1.08,0.27,-3.09,-5.99,8.17,-0.02,-0.26,0.12,-0.43,0.43,0.81,0.00,0.00,0.00,L
24.734,49,255,0,255,153,-2.07,4.82,7.47,0.05,0.00,-0.06,-5.06,2.42,9.09,0.41,-2.15,0.98,-8.87,-3.59,3.73,0.11,-3.21,0.74,-6.62,-2.11,7.80,0.08,-3.45,1.06,-2.14,-5.69,7.50,-0.01,-0.87,0.21,-0.39,0.48,0.80,0.00,0.00,0.00,L
24.785,48,255,0,255,147,-2.24,5.35,7.83,0.11,0.08,-0.12,-4.14,3.66,9.21,0.09,-2.28,0.61,-10.61,-3.37,5.81,0.18,-4.32,1.01,-6.43,-1.34,8.63,-0.09,-4.05,1.09,-2.74,-6.24,7.58,-0.06,-0.92,0.26,-0.39,0.43,0.83,0.00,0.00,0.00,L
24.836,47,255,0,255,141,-2.91,5.09,8.22,0.06,-0.05,0.00,-3.86,2.29,8.53,-0.33,-1.50,0.47,-9.23,-3.22,6.40,0.51,-4.33,1.09,-4.08,-1.21,9.53,0.11,-2.17,0.47,-2.51,-5.15,8.33,0.11,-0.25,0.04,-0.40,0.45,0.80,0.00,0.00,0.00,L
24.887,46,255,0,255,141,-2.29,5.59,8.06,0.17,0.12,-0.03,-2.42,3.47,7.78,-0.01,-1.76,0.66,-7.31,-2.33,7.62,0.29,-6.16,1.83,-2.83,-1.27,8.82,0.18,-3.86,1.07,-2.10,-4.95,7.82,0.17,-0.83,0.18,-0.38,0.45,0.83,0.00,0.00,0.00,L
24.938,46,255,255,255,128,-2.72,5.26,7.85,0.16,0.09,-0.01,-2.27,3.25,8.41,-0.00,-0.73,0.33,-2.18,-2.11,6.13,0.39,-3.15,0.94,0.04,-2.26,8.44,0.17,-2.30,0.57,-1.81,-4.92,8.38,0.09,-0.73,0.14,-0.38,0.44,0.82,0.00,0.00,0.00,L
24.989,46,255,0,255,123,-2.89,6.03,8.20,0.13,0.11,-0.02,-3.17,5.06,9.05,-0.11,-0.42,0.34,-3.62,-1.23,8.86,0.20,-1.62,0.53,0.23,-1.02,8.79,0.11,-1.81,0.58,-1.37,-5.41,7.65,-0.06,-1.03,0.13,-0.37,0.40,0.86,0.00,0.00,0.00,L
25.04,47,255,0,255,112,-2.44,5.32,7.58,0.02,0.00,0.08,-1.04,1.85,8.43,-0.30,-0.10,0.14,-2.03,-2.13,8.92,0.20,-0.74,0.14,2.01,-1.95,7.26,-0.04,0.09,0.12,-1.01,-4.98,7.86,-0.07,-0.27,0.14,-0.38,0.43,0.82,0.00,0.00,0.00,L
25.091,46,255,255,255,105,-2.57,5.89,7.94,-0.03,-0.00,-0.01,-2.23,3.77,9.42,-0.08,0.08,-0.05,-3.50,-0.66,10.45,0.13,-0.41,0.01,-1.01,-0.34,11.56,-0.21,0.45,0.05,-1.29,-5.22,8.49,-0.07,-0.22,0.01,-0.40,0.40,0.85,0.00,0.00,0.00,L
25.142,46,255,0,255,105,-2.68,5.50,7.83,-0.03,-0.05,0.08,-1.50,2.96,8.71,-0.03,-0.02,-0.07,-0.82,-1.08,8.20,0.08,0.12,-0.08,1.80,-3.09,5.72,0.03,1.63,-0.38,-1.10,-4.77,8.16,-0.08,0.04,-0.03,-0.39,0.44,0.82,0.00,0.00,0.00,L
25.193,45,255,0,255,104,-2.44,5.77,7.81,-0.07,0.05,0.02,-2.20,4.00,9.41,0.02,0.17,-0.04,-2.81,-0.58,10.40,0.19,0.15,-0.07,-3.01,-1.77,12.56,0.02,2.62,-0.54,-1.45,-6.41,9.13,-0.23,-0.25,0.07,-0.39,0.42,0.86,0.00,0.00,0.00,L
25.244,45,255,255,255,111,-2.94,5.91,8.05,-0.01,-0.07,0.02,-1.93,2.69,9.04,-0.04,-0.10,-0.01,-0.04,-1.77,7.04,0.12,0.07,-0.15,0.11,-3.76,4.49,0.42,2.61,-0.87,-0.72,-5.34,7.70,0.15,0.34,-0.14,-0.40,0.44,0.82,0.00,0.00,0.00,L
25.295,46,255,0,255,115,-2.52,5.81,7.82,-0.03,0.10,-0.06,-1.99,4.34,9.30,0.11,0.34,-0.16,-3.89,-0.45,11.07,-0.08,1.54,-0.48,-4.79,1.56,10.41,0.03,3.53,-1.18,-2.41,-5.13,11.36,-0.11,1.03,-0.01,-0.38,0.42,0.86,0.00,0.00,0.00,L
25.346,47,255,0,255,138,-2.69,5.54,7.71,-0.06,-0.00,0.01,-2.24,2.86,9.01,-0.00,0.22,-0.03,-0.93,-2.23,7.15,0.15,1.00,-0.20,-4.55,-2.19,8.25,0.07,2.59,-0.71,-1.42,-5.41,7.34,0.19,1.29,-0.16,-0.39,0.45,0.81,0.00,0.00,0.00,L
25.397,45,255,0,255,151,-2.21,5.93,7.62,0.01,0.08,-0.10,-3.42,6.21,9.68,0.49,0.54,-0.36,-3.88,-1.02,8.71,0.18,0.95,-0.22,-7.19,-0.57,9.62,-0.28,1.59,-0.45,-3.15,-4.76,10.17,0.03,0.98,-0.11,-0.38,0.41,0.86,0.00,0.00,0.00,L
25.448,47,255,0,255,173,-3.01,5.27,8.49,-0.12,-0.00,-0.03,-2.77,2.87,8.76,0.21,0.14,-0.29,-2.91,-1.01,6.58,0.19,1.26,-0.34,-4.72,-1.64,5.31,-0.07,2.64,-0.70,-0.95,-5.66,5.73,0.08,1.76,-0.11,-0.38,0.45,0.82,0.00,0.00,0.00,L
25.499,46,255,0,255,191,-2.80,6.14,8.19,-0.07,0.02,-0.17,-4.04,5.70,9.49,0.29,0.17,-0.29,-5.79,-0.68,9.97,-0.09,1.39,-0.42,-8.09,-2.19,6.81,-0.07,1.34,-0.39,-3.34,-5.62,6.67,0.11,1.40,-0.36,-0.40,0.40,0.86,0.00,0.00,0.00,L
25.55,47,255,0,255,202,-3.00,5.33,8.12,-0.05,-0.10,0.11,-1.47,2.38,8.28,0.16,-0.22,-0.01,-1.33,-2.97,6.22,0.13,1.90,-0.43,-4.79,-2.92,6.40,-0.01,2.41,-0.57,-1.45,-4.69,5.22,0.21,3.23,-0.43,-0.37,0.49,0.80,0.00,0.00,0.00,L
25.601,50,255,0,255,219,-2.64,6.56,8.36,0.01,0.09,-0.14,-3.84,6.76,10.04,0.25,0.05,-0.14,-7.89,-0.16,9.85,-0.02,0.95,-0.21,-9.96,-1.99,6.32,-0.17,0.84,-0.22,-4.82,-4.73,7.29,-0.09,0.91,-0.18,-0.36,0.42,0.85,0.00,0.00,0.00,L
25.652,49,255,0,255,229,-3.00,4.59,7.94,-0.06,-0.13,-0.01,-1.62,2.48,8.41,0.10,-0.08,-0.25,-5.63,-1.33,5.91,-0.03,1.34,-0.50,-9.26,-1.44,3.62,0.11,2.15,-0.59,-8.67,-3.67,5.46,0.25,3.20,-0.20,-0.38,0.46,0.81,0.00,0.00,0.00,L
25.703,53,255,0,255,242,-2.49,5.99,8.12,-0.04,0.08,0.01,-4.14,7.31,10.11,0.35,-0.11,-0.10,-8.00,-1.08,7.92,-0.22,1.10,-0.25,-9.50,-1.76,4.33,-0.17,1.00,-0.30,-5.52,-6.18,6.11,-0.05,1.38,-0.09,-0.38,0.40,0.86,0.00,0.00,0.00,L
25.754,55,255,0,255,248,-2.30,4.75,7.48,-0.04,-0.14,0.03,-0.92,4.89,7.35,0.19,0.06,-0.30,-7.22,-1.11,7.69,-0.09,2.57,-0.67,-10.47,-2.38,3.32,0.01,1.93,-0.52,-9.57,-4.14,5.91,0.08,2.53,-0.09,-0.37,0.48,0.79,0.00,0.00,0.00,L
25.805,56,255,0,255,255,-2.76,6.52,8.22,-0.02,0.08,-0.01,-4.18,5.59,10.23,0.18,-0.11,0.02,-8.83,-2.86,6.11,-0.14,0.93,-0.26,-9.27,-3.50,2.87,-0.20,0.59,-0.17,-7.06,-6.35,5.34,0.02,0.44,-0.05,-0.37,0.42,0.84,0.00,0.00,0.00,L
25.856,55,255,255,255,255,-2.45,4.76,7.78,0.03,-0.02,-0.04,-1.63,3.55,7.08,0.28,0.13,-0.44,-7.96,-1.07,3.93,0.11,2.46,-0.64,-10.69,-2.31,2.66,0.01,2.38,-0.61,-7.11,-4.27,5.31,0.31,2.95,-0.21,-0.36,0.47,0.81,0.00,0.00,0.00,L
25.908,57,255,0,255,255,-3.28,5.93,8.59,-0.07,0.05,0.12,-3.98,5.10,8.96,-0.01,-0.02,0.08,-9.97,-3.09,5.59,-0.11,0.47,-0.13,-8.78,-3.87,1.41,-0.01,-0.22,0.02,-5.09,-6.60,2.74,0.07,0.10,-0.02,-0.37,0.46,0.84,0.00,0.00,0.00,L
25.958,56,255,0,255,255,-1.99,5.25,7.53,0.01,-0.05,-0.03,-1.18,3.76,6.46,0.04,0.13,-0.24,-10.00,-2.12,4.30,0.00,2.17,-0.48,-10.85,-2.97,1.71,-0.05,1.77,-0.50,-10.06,-5.54,3.91,0.14,2.22,-0.23,-0.34,0.45,0.84,0.00,0.00,0.00,L
26.009,57,255,0,255,255,-2.83,5.31,8.00,-0.04,-0.05,0.12,-2.90,4.37,8.22,-0.12,-0.21,0.13,-9.00,-3.04,4.40,-0.12,0.77,-0.19,-7.54,-3.77,0.45,-0.02,0.48,-0.12,-6.87,-5.51,3.53,0.17,0.55,-0.01,-0.37,0.47,0.82,0.00,0.00,0.00,L
26.06,57,255,0,255,255,-2.38,5.63,7.99,-0.03,-0.03,-0.00,-2.06,4.98,7.69,-0.01,0.02,-0.09,-10.01,-2.32,3.02,-0.02,1.22,-0.33,-10.52,-2.91,0.64,-0.02,1.06,-0.35,-9.70,-5.22,3.28,-0.03,0.98,-0.07,-0.36,0.45,0.83,0.00,0.00,0.00,L
26.111,58,255,0,255,255,-3.06,5.16,8.09,-0.04,0.01,0.11,-2.76,3.71,8.52,-0.14,-0.09,0.08,-6.99,-3.40,0.46,-0.01,0.84,-0.23,-9.22,-3.70,0.16,0.04,1.48,-0.44,-9.55,-5.27,2.52,0.12,1.45,-0.23,-0.36,0.47,0.82,0.00,0.00,0.00,L
26.163,58,255,0,255,255,-1.97,5.36,7.51,-0.06,0.01,0.01,-2.55,4.59,8.37,-0.03,0.16,-0.11,-10.64,-2.81,1.72,-0.09,1.19,-0.30,-11.01,-3.90,-0.35,-0.09,0.73,-0.27,-9.46,-6.31,2.61,-0.04,0.43,-0.05,-0.38,0.45,0.83,0.00,0.00,0.00,L
26.213,58,255,0,255,255,-2.77,5.06,8.15,0.01,-0.15,0.04,-2.37,4.58,8.01,0.02,-0.10,-0.05,-6.44,-2.46,-0.82,0.09,0.39,-0.12,-6.21,-3.96,-3.88,0.12,0.87,-0.13,-7.93,-4.18,1.76,0.09,0.96,-0.07,-0.37,0.49,0.81,0.00,0.00,0.00,L
26.264,57,255,0,255,255,-2.19,5.79,7.90,-0.03,0.01,0.01,-3.04,5.32,8.57,-0.13,0.12,-0.04,-9.57,-3.05,1.26,-0.19,1.00,-0.33,-9.80,-4.84,-0.28,-0.07,0.62,-0.23,-7.91,-6.00,2.27,-0.05,0.47,-0.04,-0.38,0.45,0.83,0.00,0.00,0.00,L
26.315,58,255,0,255,255,-2.71,5.04,8.36,-0.01,-0.02,0.01,-2.69,4.49,8.40,0.07,-0.05,-0.03,-9.32,-3.33,1.51,0.07,0.19,-0.05,-9.13,-4.28,-0.52,0.03,0.19,-0.04,-7.22,-5.59,1.34,-0.01,0.18,-0.00,-0.38,0.47,0.81,0.00,0.00,0.00,L
26.366,57,255,0,255,255,-2.53,5.51,8.24,-0.04,0.06,0.03,-3.05,4.51,8.85,-0.11,0.11,-0.00,-9.99,-3.82,1.49,-0.14,1.03,-0.34,-10.10,-4.05,-0.79,-0.01,0.74,-0.33,-8.94,-5.90,1.94,-0.07,0.64,-0.16,-0.34,0.45,0.83,0.00,0.00,0.00,L
26.417,60,255,0,255,255,-2.33,5.58,8.10,0.00,-0.05,0.01,-3.09,4.55,9.22,-0.03,-0.08,0.07,-8.34,-3.85,0.76,0.05,-0.13,-0.01,-7.56,-4.64,-1.90,0.01,0.19,0.02,-6.65,-5.32,0.97,0.02,0.29,0.00,-0.39,0.48,0.81,0.00,0.00,0.00,L
26.468,58,255,0,255,255,-2.45,6.01,7.97,-0.02,0.05,0.02,-2.87,5.28,8.56,-0.00,0.14,-0.03,-10.18,-3.73,-0.96,0.01,0.64,-0.17,-9.53,-4.24,-1.16,0.03,0.21,-0.09,-8.86,-5.77,1.68,0.05,0.41,-0.01,-0.38,0.46,0.83,0.00,0.00,0.00,L
26.519,57,255,0,255,255,-2.48,4.99,8.21,-0.05,-0.02,-0.03,-2.35,4.70,8.08,-0.03,0.11,-0.14,-9.28,-3.66,0.40,-0.04,0.47,-0.16,-9.29,-4.62,-1.43,-0.03,0.28,-0.05,-8.11,-5.97,0.41,0.03,0.41,0.03,-0.39,0.46,0.83,0.00,0.00,0.00,L
26.57,60,255,0,255,255,-2.45,5.28,7.92,0.03,0.01,-0.02,-2.78,4.39,8.70,0.01,0.07,-0.09,-9.69,-3.35,0.18,-0.01,0.13,-0.05,-8.50,-4.40,-2.54,-0.02,0.12,-0.00,-7.98,-5.77,0.18,-0.02,0.14,-0.00,-0.36,0.45,0.83,0.00,0.00,0.00,L
26.621,57,255,0,255,255,-2.39,5.30,7.81,-0.04,-0.02,0.03,-1.80,3.73,7.35,-0.04,0.05,-0.06,-8.06,-3.35,0.62,-0.11,0.36,-0.11,-8.29,-4.49,-1.94,-0.04,0.21,-0.04,-7.84,-5.83,0.38,-0.03,0.22,0.03,-0.38,0.48,0.79,0.00,0.00,0.00,L
26.672,58,255,0,255,255,-3.04,5.94,8.76,-0.02,0.01,0.04,-3.79,4.44,9.51,-0.14,-0.03,0.05,-9.20,-4.41,-0.17,0.03,-0.14,-0.02,-8.88,-4.41,-1.26,0.04,-0.41,0.07,-7.85,-5.60,1.04,0.03,-0.23,0.07,-0.38,0.44,0.83,0.00,0.00,0.00,L
26.723,60,255,0,255,255,-2.02,5.45,7.59,0.02,0.00,0.01,-2.99,4.23,9.03,-0.12,0.01,-0.04,-12.08,-3.61,0.64,0.04,-1.19,0.21,-10.26,-3.70,-1.78,-0.02,-1.87,0.46,-10.35,-5.74,1.39,-0.00,-1.85,0.07,-0.37,0.46,0.83,0.00,0.00,0.00,L
26.774,59,255,0,255,249,-2.54,5.11,7.90,0.09,-0.10,0.05,-2.96,4.27,9.20,-0.23,-0.29,0.15,-11.28,-3.95,3.73,0.21,-5.96,1.23,-8.73,-4.40,-0.98,0.05,-6.74,1.89,-7.19,-3.86,3.93,-0.35,-7.39,0.30,-0.40,0.49,0.81,0.00,0.00,0.00,L
26.825,56,255,0,255,244,-1.89,4.88,7.61,0.18,0.07,-0.10,-2.00,4.07,8.46,-0.49,-0.36,0.16,-13.44,-2.27,5.67,0.13,-6.52,1.59,-7.18,-4.56,-5.57,0.47,-7.91,2.39,-3.47,-5.51,-1.73,-0.59,-5.99,0.83,-0.35,0.48,0.82,0.00,0.00,0.00,L
26.876,55,255,0,255,230,-3.27,5.76,8.56,0.01,-0.03,-0.01,-2.68,3.22,8.94,-0.63,-0.38,0.39,-8.87,-2.42,6.12,0.06,-3.16,0.72,-8.87,-2.46,7.29,0.38,-5.64,1.36,-6.03,-5.27,7.02,-0.26,-4.53,0.41,-0.36,0.44,0.82,0.00,0.00,0.00,L
26.927,55,255,0,255,199,-1.97,4.90,7.67,0.08,-0.05,-0.12,-0.91,2.93,8.19,-0.36,-0.56,0.21,-4.93,-2.01,5.67,0.11,-4.04,1.31,-4.45,-2.14,4.83,0.16,-6.28,2.29,-4.07,-4.96,5.00,-0.33,-5.27,0.84,-0.38,0.49,0.80,0.00,0.00,0.00,L
26.978,50,255,0,255,162,-2.40,6.33,7.60,-0.00,-0.73,-0.17,-2.71,5.68,9.70,-0.43,-0.14,0.47,-5.20,-1.76,7.08,-0.14,-2.66,0.98,-4.64,-2.34,8.43,-0.18,-2.28,0.65,-2.25,-6.31,7.35,-0.36,-1.78,0.21,-0.34,0.43,0.85,0.00,0.00,0.00,L
27.029,47,255,0,255,147,-2.03,4.98,7.76,-0.33,-1.70,-0.18,-0.96,2.24,8.27,-0.30,-0.11,0.09,-3.58,-2.30,7.16,0.05,-1.06,0.30,-2.26,-1.56,7.84,0.10,-1.13,0.33,-2.56,-4.99,7.96,0.01,-0.68,0.06,-0.41,0.45,0.81,0.00,0.00,0.00,L
27.08,35,255,0,255,141,-1.12,5.79,8.00,-0.08,-1.09,-0.31,-2.37,5.23,10.24,0.01,0.33,-0.03,-5.47,-1.24,10.36,-0.01,-0.90,0.24,-3.19,-1.17,9.23,-0.06,-0.70,0.25,-1.79,-5.56,7.98,-0.18,-0.46,0.11,-0.36,0.45,0.84,0.00,0.00,0.00,L
27.131,31,255,0,255,136,-0.93,4.63,7.83,-0.10,-0.40,-0.11,-1.46,2.58,8.90,-0.12,0.18,-0.06,-3.56,-2.17,8.43,-0.01,0.08,-0.03,-2.50,-1.33,8.89,0.05,0.08,-0.08,-2.09,-5.65,7.92,-0.03,0.07,0.03,-0.41,0.45,0.81,0.00,0.00,0.00,L
27.182,27,255,0,255,136,-1.16,5.73,8.38,0.00,0.10,0.02,-1.96,4.65,8.95,-0.18,0.21,0.05,-4.40,-1.41,9.24,-0.06,-0.06,0.03,-2.60,-1.45,9.27,-0.05,-0.20,0.02,-1.33,-5.27,7.33,-0.06,-0.16,-0.06,-0.37,0.45,0.83,0.00,0.00,0.00,L
27.233,38,255,0,255,134,-0.47,5.95,7.81,-0.57,2.33,0.88,-0.90,2.38,8.11,-0.34,0.26,-0.05,-2.36,-2.25,7.44,-0.09,0.32,-0.07,-2.10,-1.89,8.73,0.02,0.67,-0.28,-1.36,-5.42,7.28,-0.01,0.16,-0.05,-0.39,0.47,0.80,0.00,0.00,0.00,L
27.284,89,255,0,255,134,-4.48,4.24,10.14,-0.75,2.66,0.89,-3.61,5.23,10.67,-0.42,0.20,0.04,-5.78,-0.46,10.14,-0.16,0.04,-0.01,-3.47,-1.14,9.90,-0.09,0.00,-0.00,-1.81,-5.66,8.14,-0.21,-0.09,-0.12,-0.39,0.44,0.84,0.00,0.00,0.00,L
