Timestamp,Thumb Flex,Pointer Flex,Middle Flex,Ring Flex,Pinky Flex,Thumb Acc. X,Thumb Acc. Y,Thumb Acc. Z,Thumb Gyro X,Thumb Gyro Y,Thumb Gyro Z,Pointer Acc. X,Pointer Acc. Y,Pointer Acc. Z,Pointer Gyro X,Pointer Gyro Y,Pointer Gyro Z,Middle Acc. X,Middle Acc. Y,Middle Acc. Z,Middle Gyro X,Middle Gyro Y,Middle Gyro Z,Ring Acc. X,Ring Acc. Y,Ring Acc. Z,Ring Gyro X,Ring Gyro Y,Ring Gyro Z,Pinky Acc. X,Pinky Acc. Y,Pinky Acc. Z,Pinky Gyro X,Pinky Gyro Y,Pinky Gyro Z,Wrist Gyro X,Wrist Gyro Y,Wrist Gyro Z,Wrist Acc. X,Wrist Acc. Y,Wrist Acc. Z,Hand
1.052,255,161,188,255,247,-1.81,-2.83,9.47,0.06,0.05,0.23,-2.38,0.05,9.63,-0.03,0.19,0.09,-1.77,2.64,9.31,-0.03,0.09,0.02,-0.67,1.18,9.79,0.04,0.05,0.01,-0.34,6.15,7.81,0.15,0.04,-0.03,0.38,-0.20,0.91,-0.18,3.11,1.89,R
1.102,255,159,189,255,249,-1.77,-3.07,9.30,0.01,0.02,0.13,-2.65,0.19,9.47,0.03,0.06,0.02,-1.79,2.50,9.28,-0.03,0.04,0.01,-0.79,1.17,9.74,-0.00,0.03,0.01,-0.33,6.34,7.70,0.06,0.04,-0.01,0.38,-0.20,0.91,0.37,0.79,0.61,R
1.154,255,158,189,255,248,-1.81,-2.92,9.50,-0.04,0.04,0.08,-2.72,0.11,9.58,-0.01,0.05,0.02,-1.79,2.56,9.35,-0.04,0.03,0.01,-0.78,1.09,9.77,0.03,0.04,-0.00,-0.26,6.27,7.70,0.07,0.03,-0.03,0.39,-0.20,0.91,0.12,0.43,0.73,R
1.205,255,159,187,255,247,-1.75,-2.87,9.44,0.01,0.03,0.02,-2.74,0.17,9.56,0.03,0.06,0.01,-1.87,2.57,9.37,-0.03,0.05,0.01,-0.84,1.15,9.75,0.01,0.04,0.00,-0.31,6.36,7.66,0.05,0.03,-0.01,0.38,-0.20,0.91,-0.49,0.98,0.49,R
1.255,255,158,189,255,246,-1.84,-2.48,9.54,0.01,0.02,0.04,-2.73,0.23,9.63,0.01,0.05,0.02,-1.77,2.56,9.33,-0.05,0.03,0.01,-0.79,1.12,9.77,0.01,0.03,0.00,-0.28,6.34,7.66,0.03,0.02,-0.01,0.39,-0.19,0.91,0.37,0.37,0.49,R
1.306,255,158,189,255,246,-1.81,-2.73,9.44,0.02,0.02,0.00,-2.68,0.08,9.52,0.06,0.07,-0.00,-1.84,2.45,9.29,0.00,0.03,-0.00,-0.83,1.16,9.79,0.02,0.03,-0.01,-0.34,6.35,7.64,0.02,0.02,-0.02,0.39,-0.20,0.91,-0.43,0.12,0.06,R
1.357,255,157,189,255,247,-1.89,-2.73,9.44,-0.01,0.03,-0.00,-2.76,0.18,9.50,0.01,0.04,0.00,-1.84,2.55,9.27,-0.01,0.01,0.00,-0.85,1.17,9.74,0.01,0.01,0.01,-0.23,6.34,7.65,0.04,0.02,-0.00,0.38,-0.19,0.91,0.73,0.49,0.12,R
1.41,255,157,189,255,247,-1.85,-2.68,9.51,-0.02,0.02,-0.01,-2.77,-0.03,9.49,0.01,0.08,0.00,-1.78,2.55,9.32,-0.04,0.04,0.00,-0.79,1.20,9.71,0.00,0.03,-0.00,-0.28,6.34,7.62,0.01,0.03,-0.02,0.39,-0.19,0.91,-0.06,-0.67,0.18,R
1.459,255,156,189,255,246,-1.92,-2.73,9.45,-0.00,0.02,-0.01,-2.80,0.11,9.57,0.01,0.06,0.01,-1.80,2.61,9.25,0.01,0.03,0.00,-0.80,1.20,9.78,0.01,0.02,0.00,-0.26,6.41,7.65,0.02,0.02,-0.01,0.39,-0.20,0.91,0.43,0.24,-0.06,R
1.512,255,156,189,255,246,-1.83,-2.62,9.47,0.00,0.02,-0.01,-2.83,0.30,9.47,0.03,0.06,0.00,-1.83,2.60,9.25,-0.02,0.03,-0.00,-0.89,1.20,9.77,-0.01,0.02,-0.00,-0.28,6.42,7.57,0.01,0.02,-0.01,0.39,-0.19,0.91,0.37,-0.12,0.18,R
1.562,255,155,188,255,246,-1.90,-2.74,9.47,0.01,0.01,0.00,-2.83,0.22,9.43,-0.01,0.06,0.01,-1.87,2.56,9.28,-0.02,0.03,0.00,-0.81,1.31,9.76,0.01,0.02,0.00,-0.28,6.41,7.61,0.03,0.02,-0.01,0.39,-0.19,0.91,0.61,0.67,0.18,R
1.612,255,154,187,255,245,-1.86,-2.66,9.45,0.02,0.02,-0.01,-2.84,-0.10,9.44,-0.00,0.06,0.01,-1.86,2.58,9.28,-0.02,0.01,0.00,-0.88,1.23,9.81,-0.01,0.01,-0.01,-0.29,6.37,7.65,-0.01,0.03,-0.02,0.39,-0.19,0.91,0.37,-0.85,0.00,R
1.668,255,154,189,255,246,-1.95,-2.71,9.48,-0.01,0.01,-0.00,-2.88,0.19,9.48,0.02,0.04,0.00,-1.90,2.50,9.26,-0.01,0.03,0.00,-0.91,1.18,9.73,0.02,0.03,-0.00,-0.29,6.43,7.61,0.03,0.02,-0.01,0.38,-0.19,0.91,0.43,0.67,0.06,R
1.714,255,153,188,255,246,-1.84,-2.61,9.37,0.00,0.02,-0.01,-2.83,0.15,9.58,0.02,0.09,0.01,-1.90,2.54,9.24,-0.02,0.03,0.00,-0.88,1.17,9.75,-0.01,0.02,-0.01,-0.30,6.38,7.53,0.01,0.02,-0.02,0.39,-0.19,0.91,0.06,-0.67,-0.06,R
1.766,255,151,188,255,245,-1.88,-2.62,9.47,-0.01,0.04,-0.01,-2.60,0.33,9.32,0.30,0.30,0.03,-2.09,2.62,9.06,0.03,0.30,0.02,-0.88,1.19,9.75,0.11,0.07,0.00,-0.35,6.49,7.61,0.11,0.03,-0.03,0.39,-0.19,0.91,-0.73,1.95,0.43,R
1.816,255,143,187,255,251,-1.85,-2.61,9.48,0.01,0.02,-0.01,-2.91,0.69,9.54,0.07,0.29,0.02,-2.07,2.70,9.20,0.03,0.09,-0.01,-0.90,1.28,9.81,-0.00,0.02,-0.00,-0.26,6.36,7.58,-0.04,0.02,-0.00,0.39,-0.19,0.91,0.67,-0.92,-0.18,R
1.867,255,140,185,255,245,-1.91,-2.58,9.44,-0.00,0.03,-0.01,-3.22,0.52,9.36,0.08,0.05,-0.01,-2.14,2.67,9.21,-0.01,0.02,0.00,-0.92,1.22,9.73,0.01,0.02,0.01,-0.33,6.39,7.60,0.06,0.01,-0.01,0.38,-0.19,0.91,-0.06,0.37,0.18,R
1.918,255,139,185,255,244,-1.86,-2.70,9.41,-0.01,0.01,0.00,-3.17,0.36,9.35,0.00,0.04,0.00,-2.13,2.65,9.22,0.00,-0.00,0.01,-0.93,1.35,9.78,-0.01,0.01,0.00,-0.25,6.55,7.61,-0.02,0.01,0.00,0.39,-0.19,0.91,0.67,0.00,-0.31,R
1.971,255,140,185,255,245,-1.92,-2.65,9.50,0.00,0.02,-0.02,-3.20,0.41,9.41,0.02,0.03,-0.01,-2.07,2.60,9.19,-0.03,0.00,0.00,-0.92,1.34,9.66,-0.01,0.00,-0.00,-0.31,6.41,7.63,0.02,0.01,-0.01,0.38,-0.19,0.91,0.12,-0.18,0.12,R
2.02,255,139,185,255,244,-1.94,-2.68,9.47,-0.00,0.00,0.02,-3.18,0.46,9.38,-0.00,0.02,0.01,-2.11,2.55,9.21,-0.01,0.00,0.01,-0.90,1.27,9.73,0.02,0.01,0.01,-0.27,6.43,7.58,0.05,0.02,-0.01,0.39,-0.19,0.90,0.37,0.98,0.55,R
2.071,255,139,185,255,245,-1.91,-2.66,9.48,-0.00,0.01,-0.01,-3.25,0.53,9.42,0.02,0.03,-0.00,-2.14,2.71,9.18,-0.01,0.01,-0.00,-0.91,1.36,9.68,-0.01,0.02,-0.00,-0.31,6.45,7.51,-0.01,0.02,-0.01,0.39,-0.19,0.91,-0.37,-0.67,0.12,R
2.122,255,139,185,255,245,-1.90,-2.59,9.48,0.02,-0.01,0.01,-3.24,0.52,9.35,0.03,0.03,0.01,-2.15,2.71,9.19,-0.03,0.01,0.01,-0.95,1.32,9.80,-0.01,0.02,0.01,-0.32,6.40,7.62,0.04,0.02,-0.00,0.39,-0.19,0.91,1.34,1.10,0.37,R
2.173,255,140,185,255,245,-1.82,-2.61,9.54,-0.01,0.01,-0.01,-3.16,0.33,9.44,0.02,0.04,-0.01,-2.05,2.72,9.19,0.00,0.02,-0.01,-0.91,1.29,9.79,-0.01,0.02,-0.01,-0.28,6.39,7.55,-0.01,0.02,-0.01,0.38,-0.18,0.91,-0.18,-0.85,0.31,R
2.224,255,139,186,255,245,-1.95,-2.66,9.51,-0.00,0.01,0.03,-3.26,0.50,9.42,-0.00,0.03,0.01,-2.18,2.65,9.25,-0.01,0.02,0.00,-0.95,1.43,9.79,0.03,0.03,0.00,-0.31,6.38,7.58,0.04,0.02,0.01,0.39,-0.19,0.91,0.24,1.40,0.79,R
2.277,255,139,186,255,245,-1.81,-2.61,9.47,0.02,0.01,-0.00,-3.22,0.54,9.40,0.02,0.02,0.00,-2.06,2.71,9.18,-0.00,0.02,0.00,-0.92,1.39,9.75,-0.01,0.03,-0.00,-0.31,6.50,7.54,-0.01,0.02,-0.02,0.40,-0.19,0.91,0.06,-0.24,0.18,R
2.326,255,139,184,255,245,-1.88,-2.64,9.47,-0.00,0.01,0.01,-3.27,0.46,9.32,-0.03,0.03,0.00,-2.11,2.66,9.20,-0.04,0.00,0.01,-0.93,1.26,9.73,-0.00,0.01,0.00,-0.27,6.56,7.56,0.03,0.01,-0.01,0.39,-0.19,0.91,0.79,0.24,0.06,R
2.377,255,139,185,255,245,-1.88,-2.67,9.44,-0.01,0.01,0.01,-3.19,0.53,9.30,0.01,0.04,0.00,-2.17,2.69,9.18,-0.01,0.01,0.00,-0.96,1.36,9.68,0.00,0.02,-0.01,-0.29,6.48,7.56,0.02,0.02,-0.01,0.39,-0.19,0.91,0.55,0.18,0.12,R
2.428,255,139,185,255,244,-1.96,-2.57,9.51,0.01,0.01,0.00,-3.24,0.47,9.37,-0.04,0.03,0.00,-2.15,2.65,9.21,-0.05,0.01,0.00,-0.94,1.27,9.75,-0.01,0.02,0.00,-0.33,6.41,7.54,0.00,0.02,-0.00,0.39,-0.19,0.91,0.73,-0.24,0.18,R
2.479,255,139,185,255,245,-1.91,-2.69,9.46,0.02,0.01,-0.01,-3.20,0.46,9.35,0.01,0.03,0.00,-2.16,2.75,9.20,-0.02,0.01,-0.00,-0.95,1.30,9.73,-0.00,0.01,-0.00,-0.30,6.50,7.58,-0.00,0.02,-0.01,0.40,-0.19,0.91,0.24,-0.37,0.06,R
2.531,255,139,185,255,246,-1.93,-2.65,9.46,-0.01,0.01,0.00,-3.26,0.56,9.34,-0.00,0.03,0.01,-2.10,2.63,9.18,-0.03,0.01,0.01,-0.88,1.37,9.71,0.01,0.02,0.01,-0.27,6.49,7.54,0.03,0.01,-0.01,0.39,-0.19,0.91,1.04,0.67,0.18,R
2.581,255,139,185,255,245,-1.83,-2.76,9.49,0.02,0.02,-0.01,-3.28,0.66,9.47,0.11,0.02,0.00,-2.23,2.64,9.21,-0.00,0.04,-0.00,-0.94,1.44,9.70,0.05,0.03,0.00,-0.30,6.36,7.58,0.05,0.02,-0.01,0.38,-0.19,0.92,-0.37,1.04,0.31,R
2.634,255,138,184,255,244,-1.95,-2.72,9.39,0.11,-0.02,0.05,-3.17,0.27,9.22,0.18,-0.03,0.12,-2.30,2.69,9.44,0.03,0.09,0.04,-1.12,1.58,9.75,0.05,0.05,0.02,-0.13,6.78,7.30,0.04,0.01,-0.00,0.42,-0.19,0.91,0.12,3.11,0.00,R
2.684,255,134,184,255,243,-1.86,-2.50,9.49,-0.02,0.01,-0.00,-3.13,0.68,9.13,0.06,-0.03,-0.04,-2.16,2.81,9.10,-0.00,0.02,-0.00,-0.90,1.33,9.73,-0.01,0.02,-0.01,-0.26,6.46,7.58,-0.02,0.02,-0.00,0.39,-0.19,0.91,0.49,-1.10,-0.06,R
2.734,255,138,184,255,245,-1.79,-2.63,9.36,-0.02,0.02,-0.00,-3.25,0.73,9.42,0.04,0.01,-0.02,-2.20,2.80,9.05,0.05,0.03,0.00,-0.94,1.40,9.62,-0.01,0.02,0.00,-0.30,6.44,7.38,0.01,0.01,-0.01,0.40,-0.19,0.90,0.12,0.43,0.00,R
2.785,255,136,184,255,241,-1.98,-2.56,9.49,-0.04,0.02,-0.01,-3.27,0.76,9.22,-0.06,0.08,-0.00,-2.20,2.83,9.08,-0.06,0.00,-0.00,-0.89,1.42,9.75,-0.01,0.02,-0.01,-0.30,6.49,7.61,0.00,0.02,-0.02,0.39,-0.18,0.91,0.43,-1.40,0.12,R
2.839,255,134,182,255,243,-1.88,-2.67,9.48,-0.05,0.02,-0.01,-3.30,0.70,9.33,-0.01,0.06,-0.02,-2.12,2.64,9.22,-0.02,0.04,0.01,-0.94,1.31,9.70,0.02,0.03,-0.00,-0.35,6.58,7.53,0.03,0.02,-0.01,0.39,-0.19,0.91,0.12,0.55,0.00,R
2.89,255,134,183,255,244,-1.89,-2.70,9.50,-0.01,0.03,-0.01,-3.28,0.78,9.21,-0.02,0.03,-0.01,-2.23,2.78,9.13,-0.06,0.00,-0.00,-0.94,1.42,9.69,-0.02,0.01,-0.01,-0.34,6.55,7.55,-0.02,0.02,-0.02,0.40,-0.18,0.91,0.37,-1.10,-0.43,R
2.941,255,133,183,255,243,-1.97,-2.62,9.53,-0.02,0.03,-0.00,-3.27,0.73,9.32,-0.00,0.02,0.01,-2.26,2.81,9.16,0.00,0.01,0.00,-0.98,1.37,9.73,0.01,0.02,-0.00,-0.26,6.59,7.52,0.01,0.01,-0.01,0.40,-0.19,0.91,0.49,0.43,-0.18,R
2.99,255,134,184,255,245,-1.91,-2.61,9.41,-0.04,0.02,-0.01,-3.24,0.82,9.18,-0.04,0.04,-0.00,-2.27,2.75,9.13,-0.07,-0.01,-0.00,-0.93,1.42,9.74,-0.02,0.00,-0.01,-0.23,6.49,7.54,-0.00,0.01,-0.01,0.39,-0.19,0.91,0.61,-1.34,-0.43,R
3.041,255,134,183,255,243,-1.90,-2.69,9.48,0.00,0.03,-0.01,-3.32,0.58,9.30,-0.00,0.03,-0.01,-2.24,2.73,9.15,0.01,0.00,-0.01,-0.96,1.35,9.72,-0.01,0.01,-0.00,-0.26,6.46,7.53,0.02,0.02,-0.01,0.39,-0.18,0.91,0.43,0.43,-0.31,R
3.091,255,133,184,255,245,-1.95,-2.70,9.44,-0.02,0.03,-0.02,-3.27,0.74,9.33,-0.01,0.03,-0.02,-2.29,2.78,9.07,-0.04,0.00,0.00,-0.95,1.36,9.76,-0.02,0.01,-0.00,-0.34,6.48,7.53,0.01,0.02,-0.01,0.39,-0.19,0.91,0.43,-0.73,-0.37,R
3.142,255,133,181,255,242,-1.95,-2.73,9.48,-0.01,0.02,-0.00,-3.62,0.62,9.24,0.02,0.03,0.01,-2.22,2.77,9.10,-0.00,0.01,0.01,-0.97,1.39,9.73,0.02,0.02,-0.00,-0.28,6.54,7.55,0.01,0.02,-0.01,0.39,-0.18,0.91,0.43,0.18,-0.06,R
3.193,255,134,183,255,245,-1.91,-2.60,9.50,0.00,0.02,-0.01,-3.30,0.68,9.32,-0.02,0.04,0.00,-2.22,2.72,9.16,-0.04,0.02,0.01,-1.03,1.31,9.74,0.02,0.02,-0.00,-0.38,6.46,7.58,0.02,0.02,-0.01,0.39,-0.19,0.91,0.24,0.18,-0.06,R
3.249,255,134,184,255,245,-1.84,-2.70,9.42,0.03,0.02,-0.00,-3.33,0.79,9.05,0.01,0.07,0.02,-2.22,2.81,9.05,-0.02,0.02,0.01,-0.97,1.37,9.94,0.02,0.02,-0.00,-0.33,6.44,7.45,0.04,0.02,-0.02,0.39,-0.18,0.90,0.00,0.55,0.24,R
3.295,255,131,184,255,244,-2.06,-2.44,9.58,0.04,0.03,-0.02,-3.52,0.77,9.59,0.03,0.16,0.07,-2.31,2.81,9.24,0.00,0.06,0.02,-1.03,1.40,9.74,0.07,0.05,0.01,-0.30,6.57,7.50,0.08,0.04,0.00,0.39,-0.19,0.92,-0.18,2.26,0.31,R
3.347,255,129,182,255,242,-1.85,-2.63,9.38,-0.00,-0.00,0.01,-3.18,0.70,8.91,0.02,0.06,0.06,-2.25,2.82,9.17,-0.06,0.02,0.01,-0.91,1.45,9.76,0.00,0.01,0.02,-0.28,6.53,7.43,0.02,0.02,0.01,0.40,-0.18,0.91,0.61,0.67,0.12,R
3.397,255,129,182,255,242,-1.87,-2.67,9.34,0.01,0.03,0.02,-3.34,0.69,9.12,0.05,0.01,0.02,-2.34,2.76,9.07,0.05,0.04,0.02,-1.02,1.39,9.70,0.04,0.03,0.01,-0.32,6.57,7.46,0.06,0.02,-0.00,0.39,-0.18,0.90,0.12,1.89,0.49,R
3.448,255,129,180,255,244,-1.86,-2.62,9.40,-0.03,0.03,0.01,-3.21,0.98,9.06,0.04,0.04,0.03,-2.25,2.83,9.10,-0.04,0.03,0.01,-1.07,1.40,9.69,-0.02,0.02,0.01,-0.35,6.56,7.52,0.02,0.02,-0.01,0.40,-0.17,0.91,-0.67,0.37,1.28,R
3.5,255,129,180,255,243,-1.95,-2.76,9.50,-0.02,0.04,0.00,-3.55,0.68,9.51,0.04,0.04,0.03,-2.33,2.73,9.16,0.01,0.04,0.02,-0.93,1.42,9.71,0.03,0.03,0.02,-0.34,6.60,7.47,0.06,0.03,0.01,0.39,-0.18,0.91,-0.37,1.40,0.92,R
3.55,255,128,181,255,243,-1.98,-2.63,9.43,-0.00,0.03,0.00,-3.51,0.90,9.28,0.01,0.04,0.01,-2.32,2.83,9.05,-0.01,0.02,0.01,-0.90,1.58,9.71,0.02,0.02,0.00,-0.34,6.82,7.46,0.07,0.01,-0.01,0.40,-0.18,0.91,0.37,0.61,0.73,R
3.603,255,129,182,255,242,-2.03,-2.55,9.42,0.00,0.04,0.01,-3.46,0.97,9.26,0.01,0.03,0.01,-2.38,2.92,9.11,-0.03,0.02,0.01,-1.03,1.49,9.68,0.00,0.01,0.01,-0.30,6.61,7.47,0.03,0.02,-0.00,0.40,-0.18,0.91,0.85,1.10,0.49,R
3.652,255,128,180,255,241,-1.98,-2.66,9.42,0.01,0.03,0.01,-3.35,0.88,9.15,0.03,0.02,0.01,-2.33,2.85,9.07,0.02,0.03,0.01,-1.05,1.58,9.71,0.03,0.02,0.01,-0.25,6.66,7.46,0.04,0.02,-0.00,0.40,-0.18,0.91,0.31,1.22,0.31,R
3.703,255,129,180,255,244,-2.11,-2.77,9.51,-0.02,0.03,0.02,-3.46,0.73,9.30,0.02,0.01,0.02,-2.36,2.84,9.02,-0.01,0.02,0.01,-1.03,1.62,9.66,0.01,0.01,0.01,-0.31,6.44,7.47,0.01,0.02,0.00,0.40,-0.18,0.90,0.49,0.61,0.49,R
3.755,255,129,180,255,243,-1.96,-2.66,9.48,-0.00,0.02,0.00,-3.43,0.89,9.17,0.02,0.03,0.01,-2.38,2.88,9.05,0.00,0.02,0.01,-1.05,1.55,9.73,0.01,0.02,-0.01,-0.30,6.74,7.40,0.02,0.01,-0.01,0.40,-0.18,0.91,0.37,0.37,0.24,R
3.805,255,128,180,255,242,-2.04,-2.61,9.53,-0.03,0.05,0.01,-3.50,0.90,9.48,-0.00,0.02,0.00,-2.31,2.79,8.95,0.01,0.04,0.00,-0.95,1.59,9.65,0.01,0.03,0.00,-0.26,6.55,7.39,0.06,0.02,-0.01,0.40,-0.18,0.91,0.24,0.43,0.43,R
3.857,255,129,180,255,244,-1.96,-2.71,9.44,0.03,0.02,0.00,-3.39,1.04,9.19,0.01,0.02,-0.01,-2.34,3.04,9.04,0.02,0.06,0.00,-1.06,1.58,9.67,0.01,0.03,0.00,-0.34,6.65,7.38,0.02,0.01,-0.01,0.42,-0.18,0.90,0.43,0.24,0.12,R
3.907,255,129,179,255,243,-2.04,-2.66,9.35,-0.04,0.02,-0.00,-3.54,0.86,9.51,-0.01,0.03,0.02,-2.39,2.82,9.13,-0.03,0.02,0.00,-1.03,1.56,9.71,0.01,0.02,-0.00,-0.28,6.64,7.37,0.03,0.02,-0.01,0.40,-0.18,0.91,0.37,0.61,0.31,R
3.961,255,129,180,255,243,-2.00,-2.67,9.44,0.00,0.02,-0.01,-3.40,0.91,9.13,0.01,0.02,-0.01,-2.40,2.96,9.01,-0.02,0.02,-0.00,-1.01,1.62,9.64,0.01,0.03,-0.01,-0.32,6.67,7.37,0.00,0.02,-0.02,0.41,-0.18,0.90,0.12,-0.55,-0.18,R
4.009,255,129,179,255,244,-2.10,-2.43,9.55,-0.01,0.03,-0.01,-3.47,1.08,9.27,0.03,0.03,0.00,-2.49,2.83,9.05,-0.02,0.03,0.01,-1.06,1.67,9.62,0.03,0.02,0.00,-0.27,6.66,7.38,0.02,0.02,0.01,0.40,-0.18,0.91,0.24,1.10,-0.06,R
4.06,255,129,179,255,243,-1.92,-2.72,9.42,0.01,0.02,0.00,-3.91,0.87,9.07,0.00,0.10,0.03,-2.43,2.94,9.11,-0.01,0.03,0.00,-1.08,1.62,9.65,0.02,0.03,0.00,-0.27,6.63,7.41,0.00,0.01,-0.01,0.41,-0.17,0.91,-0.43,-0.49,-0.61,R
4.111,255,129,180,255,243,-2.16,-2.47,9.40,-0.01,0.04,-0.01,-3.39,1.11,9.04,-0.01,0.02,-0.00,-2.46,3.03,9.05,-0.06,0.01,0.01,-1.05,1.64,9.50,-0.01,0.01,0.00,-0.50,6.90,7.55,0.05,0.01,-0.01,0.40,-0.18,0.91,0.49,0.12,-0.12,R
4.163,255,128,179,255,241,-1.99,-2.69,9.40,0.01,0.02,0.00,-3.48,0.95,9.33,0.02,0.02,0.01,-2.44,2.94,9.07,0.02,0.03,0.01,-1.10,1.69,9.63,0.02,0.03,0.00,-0.28,6.66,7.26,0.01,0.02,-0.01,0.41,-0.18,0.90,0.06,0.61,-0.06,R
4.213,255,127,179,255,243,-2.08,-2.69,9.38,-0.05,0.01,-0.00,-3.42,0.92,9.08,-0.01,0.04,0.01,-2.50,2.95,8.99,-0.04,0.01,-0.00,-1.08,1.47,9.64,-0.04,0.02,0.01,-0.34,6.70,7.35,0.01,0.02,-0.01,0.40,-0.17,0.91,0.73,-0.61,0.31,R
4.265,255,127,182,255,241,-1.99,-2.76,9.35,0.01,0.02,-0.01,-3.48,0.94,9.25,0.05,0.02,0.01,-2.39,3.02,8.85,0.02,0.01,0.00,-1.09,1.67,9.59,0.00,0.01,-0.00,-0.31,6.82,7.53,0.01,0.02,-0.01,0.41,-0.18,0.90,0.55,0.73,0.00,R
4.315,255,126,178,255,243,-2.03,-2.71,9.55,-0.04,0.03,-0.01,-3.45,0.89,9.17,-0.00,0.02,-0.00,-2.54,2.93,9.03,-0.02,0.02,-0.01,-1.05,1.51,9.71,0.01,0.01,-0.00,-0.31,6.66,7.38,0.01,0.02,-0.01,0.40,-0.17,0.91,0.24,-0.31,0.31,R
4.366,255,127,178,255,240,-2.06,-2.61,9.42,0.01,0.02,0.01,-3.49,1.00,9.21,0.00,0.03,0.01,-2.49,2.94,9.04,-0.03,0.01,0.00,-1.10,1.64,9.61,0.01,0.02,-0.00,-0.32,6.63,7.37,0.02,0.02,-0.01,0.41,-0.18,0.90,0.49,0.37,0.37,R
4.417,255,128,179,255,241,-2.08,-2.72,9.49,-0.02,0.03,0.01,-3.44,1.03,9.21,-0.00,0.03,-0.02,-2.46,2.98,8.98,-0.02,0.01,-0.00,-1.07,1.70,9.67,-0.00,0.01,-0.01,-0.30,6.73,7.35,0.00,0.01,-0.01,0.41,-0.17,0.91,0.49,0.12,0.06,R
4.468,255,126,179,255,241,-1.98,-2.72,9.37,0.00,0.03,-0.01,-3.46,1.02,9.21,-0.00,0.02,-0.01,-2.49,2.90,8.97,-0.03,0.01,-0.00,-1.12,1.62,9.62,0.01,0.01,0.00,-0.61,7.10,7.82,0.07,0.01,-0.02,0.40,-0.17,0.90,0.37,-0.31,-0.18,R
4.519,255,128,178,255,242,-1.83,-3.00,9.45,0.05,0.01,-0.08,-3.46,0.76,9.53,0.04,0.02,-0.03,-2.25,2.98,9.35,0.12,0.07,-0.01,-1.09,1.55,9.63,0.11,0.06,-0.02,-0.23,6.51,7.38,0.00,0.04,-0.00,0.42,-0.17,0.92,-4.58,0.12,-1.83,R
4.57,255,126,177,255,240,-2.21,-2.86,9.50,-0.02,0.03,-0.01,-3.52,0.63,9.40,0.02,0.03,0.02,-2.48,3.03,9.04,0.03,0.03,0.01,-1.11,1.66,9.67,0.04,0.04,0.01,-0.30,6.74,7.36,0.07,0.03,0.00,0.39,-0.17,0.91,0.55,1.65,0.43,R
4.621,255,128,178,255,241,-2.00,-2.71,9.39,0.03,0.02,-0.00,-3.49,1.08,9.12,0.01,0.03,0.00,-2.59,3.09,8.95,0.01,0.03,0.00,-1.20,1.74,9.59,0.01,0.03,-0.01,-0.45,7.16,7.76,-0.01,0.02,-0.02,0.42,-0.18,0.90,0.24,-0.31,0.37,R
4.672,255,127,178,255,241,-2.15,-2.54,9.52,-0.03,0.01,-0.01,-3.47,1.07,9.29,-0.03,0.03,0.01,-2.52,3.04,9.03,-0.07,0.01,0.00,-1.09,1.64,9.60,-0.01,0.01,-0.01,-0.28,6.76,7.27,0.01,0.01,-0.01,0.40,-0.17,0.91,1.16,-0.18,0.24,R
4.723,255,127,179,255,241,-2.03,-2.65,9.42,0.02,0.02,0.00,-3.46,1.01,9.30,0.01,0.03,-0.00,-2.56,3.07,8.93,-0.00,0.01,-0.00,-1.13,1.69,9.63,0.00,0.01,-0.00,-0.36,6.66,7.33,0.01,0.01,-0.01,0.41,-0.17,0.90,0.49,0.37,0.00,R
4.775,255,126,178,255,241,-2.02,-2.71,9.40,-0.01,0.01,-0.00,-3.53,1.18,9.20,-0.02,0.01,0.00,-2.56,3.12,8.93,-0.02,0.00,-0.00,-1.15,1.74,9.67,-0.01,0.01,-0.00,-0.24,6.70,7.32,-0.00,0.02,-0.01,0.41,-0.17,0.91,0.79,-0.24,0.37,R
4.826,255,126,177,255,241,-2.00,-2.69,9.41,0.01,0.01,0.00,-3.43,1.01,9.18,-0.05,0.03,0.00,-2.57,3.03,8.94,-0.06,0.01,0.00,-1.10,1.72,9.68,-0.02,0.01,-0.00,-0.32,6.74,7.30,0.01,0.02,-0.02,0.41,-0.17,0.90,0.67,-0.12,-0.06,R
4.876,255,128,177,255,241,-2.10,-2.83,9.41,-0.01,0.02,-0.01,-3.47,1.00,9.17,0.04,0.01,0.00,-2.57,2.94,8.98,-0.02,0.01,0.00,-1.13,1.71,9.67,0.00,0.01,0.00,-0.29,6.66,7.35,0.03,0.02,-0.00,0.40,-0.17,0.91,0.67,0.31,0.12,R
4.927,255,127,179,255,241,-1.99,-2.75,9.35,0.01,0.02,0.01,-3.47,1.11,9.12,-0.02,0.03,0.00,-2.53,3.02,8.95,-0.04,0.01,0.00,-1.16,1.69,9.63,-0.01,0.01,-0.00,-0.32,6.76,7.34,0.00,0.01,-0.02,0.41,-0.17,0.90,0.92,0.12,0.18,R
4.98,255,127,179,255,241,-2.04,-2.83,9.42,-0.01,0.02,-0.01,-3.52,1.02,9.26,0.01,0.02,0.00,-2.59,3.03,8.91,-0.01,0.01,0.00,-1.12,1.71,9.65,-0.00,0.01,0.00,-0.32,6.75,7.29,-0.01,0.02,-0.01,0.41,-0.17,0.91,0.67,-0.31,-0.06,R
5.029,255,126,177,255,241,-2.13,-2.72,9.41,-0.01,0.01,-0.01,-3.46,1.06,9.15,-0.03,0.02,-0.01,-2.61,3.01,8.98,-0.06,-0.00,0.00,-1.11,1.66,9.68,-0.01,0.01,0.00,-0.34,6.80,7.45,0.01,0.01,-0.01,0.40,-0.17,0.91,0.85,-0.43,0.00,R
5.08,255,127,177,255,241,-1.99,-2.71,9.34,0.03,0.01,-0.00,-3.51,1.03,9.14,0.01,0.01,0.01,-2.60,3.09,8.94,0.00,0.01,0.00,-1.16,1.74,9.63,0.00,0.01,-0.00,-0.26,6.71,7.35,0.01,0.02,-0.01,0.41,-0.17,0.91,0.43,0.12,-0.24,R
5.132,255,127,177,255,241,-2.09,-2.72,9.45,-0.02,0.02,0.01,-3.47,0.96,9.27,0.02,0.03,0.02,-2.54,2.99,8.98,0.00,0.02,0.01,-1.19,1.81,9.66,0.04,0.03,-0.00,-0.30,6.79,7.32,0.04,0.02,-0.01,0.41,-0.17,0.90,0.24,1.22,0.12,R
5.182,255,126,178,255,241,-2.07,-2.59,9.40,0.02,0.01,-0.01,-3.47,1.11,9.19,0.01,0.03,0.00,-2.56,3.10,8.95,-0.01,0.02,0.00,-1.09,1.71,9.46,-0.00,0.02,-0.01,-0.24,6.59,7.03,0.01,0.01,-0.01,0.40,-0.17,0.90,0.06,-0.49,0.12,R
5.233,255,126,177,255,241,-2.04,-2.67,9.51,0.02,0.04,0.01,-3.47,1.08,9.17,0.02,0.03,0.01,-2.59,3.10,8.94,-0.00,0.02,0.00,-1.13,1.71,9.67,0.01,0.02,0.00,-0.26,6.81,7.24,0.01,0.02,-0.01,0.41,-0.17,0.91,0.49,0.92,0.24,R
5.288,255,127,177,255,241,-2.15,-2.72,9.38,-0.03,0.02,-0.01,-3.46,1.12,9.15,-0.01,0.03,-0.01,-2.49,3.10,8.90,-0.06,0.01,-0.00,-1.09,1.75,9.67,0.00,0.01,-0.01,-0.30,6.71,7.27,0.00,0.02,-0.01,0.40,-0.17,0.91,0.24,-0.79,0.12,R
5.335,255,126,177,255,241,-2.13,-2.58,9.58,0.01,0.03,0.01,-3.39,1.12,9.11,0.02,0.03,0.01,-2.55,3.05,8.94,-0.01,0.01,0.01,-1.13,1.75,9.64,0.00,0.01,0.00,-0.30,6.78,7.31,0.02,0.02,-0.01,0.41,-0.17,0.90,0.79,0.37,0.18,R
5.387,255,127,178,255,241,-2.01,-2.77,9.37,0.01,0.02,-0.00,-3.50,0.97,9.24,0.01,0.04,0.01,-2.58,3.05,8.93,0.01,0.01,0.00,-1.20,1.72,9.62,0.00,0.01,0.00,-0.28,6.76,7.33,0.01,0.01,-0.00,0.41,-0.17,0.90,0.61,0.31,0.00,R
5.438,255,128,177,255,241,-2.06,-2.80,9.45,-0.02,0.02,-0.01,-3.47,1.08,9.20,-0.00,0.02,0.00,-2.58,3.09,8.93,-0.02,0.01,0.00,-1.14,1.70,9.60,-0.01,0.01,-0.00,-0.29,6.66,7.30,-0.01,0.02,0.00,0.40,-0.16,0.91,0.31,-0.31,0.31,R
5.488,255,126,177,255,241,-2.08,-2.60,9.43,0.03,0.02,0.00,-3.51,1.26,9.14,0.03,0.01,0.00,-2.63,3.11,8.86,-0.01,0.02,0.00,-1.17,1.88,9.65,-0.00,0.01,-0.00,-0.37,6.77,7.28,-0.00,0.02,-0.01,0.42,-0.17,0.90,0.61,0.06,0.18,R
5.539,255,126,179,255,241,-2.08,-2.68,9.40,0.01,0.02,-0.01,-3.46,1.13,9.13,-0.05,0.03,-0.00,-2.62,3.12,8.96,-0.08,-0.00,0.00,-1.16,1.76,9.67,-0.02,0.01,-0.01,-0.23,6.71,7.29,0.00,0.02,-0.02,0.41,-0.17,0.91,0.55,-0.67,0.00,R
5.591,255,127,176,255,241,-2.04,-2.74,9.38,-0.01,0.01,-0.00,-3.46,1.09,9.16,-0.01,0.02,-0.00,-2.62,3.07,8.94,-0.04,0.00,0.00,-1.14,1.77,9.59,-0.01,0.01,-0.00,-0.35,6.78,7.27,0.01,0.02,-0.01,0.40,-0.17,0.90,0.98,-0.18,0.06,R
5.642,255,127,178,255,242,-2.07,-2.77,9.41,0.02,0.01,-0.01,-3.52,1.07,9.17,-0.02,0.03,0.01,-2.48,3.09,8.89,-0.02,0.01,-0.00,-1.06,1.77,9.63,-0.01,0.01,-0.01,-0.31,6.72,7.35,-0.01,0.02,-0.01,0.41,-0.17,0.90,0.73,-0.37,-0.06,R
5.692,255,127,178,255,241,-2.05,-2.81,9.44,-0.01,0.01,-0.01,-3.50,1.03,9.36,-0.01,0.03,-0.00,-2.54,2.89,8.99,-0.03,0.01,-0.00,-1.17,1.70,9.67,0.01,0.01,-0.01,-0.34,6.67,7.29,0.01,0.02,-0.01,0.40,-0.17,0.91,0.67,-0.06,0.00,R
5.743,255,128,179,255,241,-2.09,-2.67,9.39,0.00,0.01,0.00,-3.52,1.18,9.18,-0.01,0.03,0.01,-2.59,3.19,8.90,-0.04,0.00,0.00,-1.11,1.72,9.66,-0.02,0.01,-0.00,-0.35,6.90,7.31,0.01,0.02,-0.00,0.41,-0.17,0.90,0.55,-0.18,0.37,R
5.794,255,126,177,255,241,-2.05,-2.70,9.47,0.01,0.01,0.00,-3.54,1.08,9.20,0.00,0.02,0.01,-2.59,3.11,8.98,-0.01,0.01,-0.00,-1.16,1.72,9.62,-0.00,0.01,0.00,-0.32,6.76,7.32,0.00,0.02,-0.01,0.41,-0.17,0.90,0.43,0.06,0.12,R
5.844,255,127,178,255,241,-2.07,-2.70,9.39,0.00,0.02,-0.01,-3.50,1.11,9.19,-0.03,0.03,0.00,-2.59,3.03,8.96,-0.03,0.01,0.00,-1.16,1.80,9.61,-0.01,0.01,0.00,-0.33,6.76,7.35,0.01,0.02,-0.01,0.41,-0.17,0.91,0.61,0.00,-0.06,R
5.896,255,127,177,255,241,-2.06,-2.65,9.41,-0.00,0.01,0.00,-3.51,1.13,9.25,-0.03,0.02,0.00,-2.60,3.06,8.95,-0.05,0.00,0.00,-1.16,1.74,9.62,-0.01,0.01,-0.00,-0.36,6.75,7.28,0.01,0.02,-0.01,0.41,-0.17,0.91,0.98,-0.31,0.12,R
5.947,255,127,178,255,241,-2.06,-2.79,9.41,0.01,0.01,-0.01,-3.57,1.01,9.23,-0.02,0.04,0.01,-2.61,3.02,8.94,-0.01,0.01,0.01,-1.22,1.78,9.63,0.00,0.01,-0.01,-0.33,6.74,7.35,0.01,0.02,-0.01,0.41,-0.17,0.90,0.61,0.18,-0.12,R
5.998,255,127,177,255,241,-2.12,-2.76,9.39,-0.01,0.01,-0.01,-3.45,1.14,9.10,-0.00,0.02,-0.01,-2.60,3.10,8.96,-0.04,0.01,0.01,-1.14,1.74,9.66,-0.01,0.01,0.00,-0.34,6.77,7.25,0.01,0.02,-0.01,0.41,-0.17,0.91,0.85,-0.06,0.00,R
6.049,255,127,177,255,240,-2.09,-2.58,9.43,0.00,0.01,-0.01,-3.52,1.11,9.20,-0.01,0.02,-0.00,-2.63,3.05,8.96,-0.05,0.00,0.00,-1.13,1.71,9.65,-0.01,0.01,-0.00,-0.34,6.70,7.33,0.01,0.02,-0.02,0.41,-0.17,0.90,0.73,-0.55,0.12,R
6.1,255,128,177,255,241,-2.12,-2.71,9.37,0.01,0.02,-0.00,-3.49,1.13,9.18,-0.02,0.04,0.00,-2.59,3.06,8.96,-0.02,0.01,0.00,-1.15,1.77,9.67,0.00,0.01,-0.00,-0.30,6.76,7.30,-0.01,0.01,-0.01,0.41,-0.17,0.90,0.85,-0.18,-0.18,R
6.151,255,128,178,255,241,-2.12,-2.73,9.34,-0.01,0.02,0.00,-3.53,1.03,9.32,-0.06,0.06,-0.00,-2.66,3.04,9.03,-0.06,0.01,-0.00,-1.24,1.70,9.74,0.01,0.01,0.00,-0.23,6.46,7.14,-0.02,0.02,-0.01,0.40,-0.17,0.90,0.79,-0.43,0.00,R
6.204,255,126,177,255,241,-2.16,-2.79,9.52,-0.01,0.02,-0.00,-3.44,1.21,8.92,-0.01,0.04,0.00,-2.67,3.16,8.96,-0.04,0.02,0.01,-1.05,1.60,9.64,-0.02,0.02,0.00,-0.36,6.72,7.43,-0.00,0.03,-0.00,0.41,-0.17,0.91,0.85,-0.18,0.12,R
6.256,255,125,177,255,240,-2.05,-2.75,9.37,0.01,0.01,0.00,-3.50,0.97,9.25,-0.01,0.06,0.01,-2.69,3.12,8.94,-0.04,0.02,0.01,-1.14,1.75,9.66,0.03,0.01,0.00,-0.30,6.82,7.25,0.02,0.02,-0.00,0.41,-0.17,0.91,0.92,1.04,0.00,R
6.306,255,125,176,255,240,-2.06,-2.72,9.13,-0.03,0.02,0.00,-3.49,1.13,8.99,-0.02,0.02,0.00,-2.64,3.07,8.95,-0.08,-0.01,0.01,-1.16,1.75,9.64,-0.04,0.01,0.01,-0.30,6.75,7.36,-0.01,0.02,-0.00,0.40,-0.17,0.90,1.28,-0.92,0.24,R
6.356,255,126,177,255,241,-2.10,-2.63,9.44,0.02,0.02,0.01,-3.51,1.03,9.17,0.02,0.02,0.02,-2.60,3.04,8.90,-0.01,0.01,0.01,-1.13,1.66,9.61,0.01,0.02,0.00,-0.26,6.74,7.28,0.02,0.03,0.00,0.41,-0.17,0.90,0.79,0.79,0.43,R
6.406,255,125,176,255,241,-2.15,-2.59,9.35,-0.01,0.02,0.01,-3.55,1.12,9.21,-0.03,0.03,0.01,-2.65,3.01,8.95,-0.07,0.00,0.01,-1.13,1.69,9.65,-0.03,0.01,-0.00,-0.32,6.75,7.32,-0.01,0.02,-0.01,0.41,-0.17,0.91,0.98,-0.67,0.49,R
6.458,255,125,177,255,241,-2.14,-2.78,9.36,-0.01,0.03,0.01,-3.51,1.01,9.17,-0.00,0.03,0.01,-2.65,3.00,8.95,-0.04,0.00,0.01,-1.13,1.75,9.70,-0.01,0.00,0.00,-0.33,6.70,7.36,0.00,0.02,-0.00,0.41,-0.17,0.91,1.04,0.18,0.18,R
6.511,255,125,179,255,241,-2.11,-2.78,9.38,0.00,0.02,0.00,-3.47,1.11,9.06,0.00,0.01,-0.00,-2.63,3.03,8.98,-0.02,-0.00,-0.00,-1.14,1.70,9.58,-0.01,0.01,-0.01,-0.31,6.70,7.30,0.01,0.02,-0.01,0.41,-0.17,0.90,0.61,-0.06,-0.18,R
6.561,255,125,182,255,240,-2.17,-2.73,9.47,-0.01,0.01,-0.00,-3.55,1.00,9.25,-0.01,0.02,-0.00,-2.68,3.07,8.96,-0.01,0.01,0.01,-1.15,1.78,9.59,0.01,0.02,-0.00,-0.31,6.76,7.29,0.01,0.02,-0.00,0.40,-0.17,0.90,0.79,-0.12,0.12,R
6.61,255,125,177,255,241,-2.13,-2.79,9.42,-0.01,0.02,0.00,-3.53,1.09,9.14,0.00,0.02,0.00,-2.58,3.05,8.98,-0.04,0.00,-0.00,-1.20,1.76,9.64,-0.01,0.01,-0.01,-0.35,6.73,7.37,-0.01,0.03,-0.01,0.41,-0.17,0.91,0.79,-0.37,-0.18,R
6.661,255,125,177,255,241,-2.17,-2.69,9.33,0.00,0.02,-0.01,-3.50,1.06,9.14,-0.01,0.02,0.00,-2.59,3.03,8.98,-0.03,0.00,0.01,-1.19,1.71,9.64,-0.00,0.01,0.00,-0.27,6.74,7.29,0.02,0.02,-0.00,0.40,-0.17,0.91,0.79,0.12,-0.06,R
6.713,255,126,177,255,241,-2.10,-2.78,9.41,-0.00,0.01,0.00,-3.52,1.07,9.11,-0.01,0.02,-0.00,-2.64,3.00,8.96,-0.03,0.00,-0.00,-1.13,1.78,9.65,-0.01,0.01,-0.01,-0.27,6.71,7.33,0.01,0.01,-0.01,0.41,-0.17,0.90,0.61,-0.37,0.00,R
6.764,255,125,177,255,241,-2.20,-2.69,9.46,0.01,0.01,-0.01,-3.53,1.17,9.29,-0.02,0.02,0.00,-2.69,2.97,9.05,-0.01,0.02,0.01,-1.13,1.70,9.60,0.01,0.02,-0.00,-0.34,6.68,7.26,0.02,0.02,-0.01,0.40,-0.17,0.91,0.37,0.24,0.18,R
6.814,255,126,177,255,241,-2.11,-2.81,9.44,0.00,0.01,0.01,-3.56,1.02,9.24,-0.03,0.03,0.00,-2.60,3.01,9.02,-0.03,0.01,-0.01,-1.15,1.81,9.63,0.01,0.01,-0.01,-0.24,6.76,7.28,-0.01,0.02,-0.01,0.42,-0.17,0.91,0.12,-0.49,0.18,R
6.865,255,125,176,255,240,-2.11,-2.66,9.36,0.01,0.02,-0.01,-3.49,1.17,9.15,-0.01,0.01,0.00,-2.65,3.13,8.91,-0.04,-0.01,0.00,-1.14,1.75,9.70,-0.01,0.01,0.00,-0.38,6.73,7.29,0.01,0.01,-0.01,0.40,-0.17,0.91,0.67,-0.06,0.31,R
6.921,255,125,176,255,240,-2.13,-2.72,9.36,0.02,0.01,0.01,-3.55,1.09,9.10,-0.01,0.02,0.01,-2.71,3.10,8.91,-0.02,0.01,0.01,-1.18,1.83,9.62,0.00,0.01,-0.00,-0.31,6.77,7.29,-0.01,0.02,-0.00,0.42,-0.17,0.90,0.67,0.49,0.00,R
6.967,255,125,177,255,241,-2.06,-2.77,9.37,-0.04,0.01,-0.01,-3.60,1.02,9.23,-0.05,0.03,0.00,-2.62,3.01,8.95,-0.05,0.00,-0.00,-1.20,1.64,9.61,-0.03,0.01,0.00,-0.35,6.68,7.31,0.02,0.02,-0.01,0.40,-0.17,0.91,0.67,-0.49,0.24,R
7.019,255,125,177,255,240,-2.17,-2.62,9.50,0.01,0.03,0.02,-3.52,1.16,9.12,-0.01,0.03,0.01,-2.63,3.01,8.88,-0.03,0.01,0.01,-1.19,1.69,9.63,-0.00,0.01,0.01,-0.31,6.80,7.34,0.00,0.02,-0.00,0.41,-0.17,0.90,1.10,0.55,0.31,R
7.069,255,125,177,255,236,-2.04,-2.69,9.39,-0.02,0.01,-0.01,-3.48,1.11,9.15,0.02,0.02,0.00,-2.60,3.11,8.94,-0.02,0.01,-0.00,-1.13,1.74,9.61,-0.01,0.01,-0.01,-0.27,6.64,7.37,-0.01,0.03,-0.01,0.40,-0.16,0.91,0.00,-0.79,0.31,R
7.122,255,125,177,255,241,-2.14,-2.77,9.38,0.01,0.01,-0.01,-3.59,1.01,9.24,-0.00,0.03,0.00,-2.62,3.02,8.84,0.01,0.01,0.00,-1.16,1.77,9.60,0.03,0.02,-0.01,-0.34,6.76,7.24,0.03,0.02,-0.01,0.41,-0.17,0.90,0.61,0.49,0.12,R
7.171,255,125,182,255,240,-2.07,-2.72,9.43,-0.01,0.02,-0.01,-3.55,1.17,9.24,-0.01,0.03,0.01,-2.59,3.07,8.96,-0.04,-0.00,-0.00,-1.14,1.70,9.62,-0.02,0.01,-0.01,-0.31,6.76,7.40,-0.01,0.02,-0.02,0.41,-0.17,0.91,0.12,-0.92,0.06,R
7.223,255,125,177,255,241,-2.11,-2.69,9.43,-0.01,0.02,-0.00,-3.55,1.06,9.23,0.00,0.03,0.01,-2.67,3.00,8.94,-0.01,0.02,-0.00,-1.26,1.61,9.57,0.01,0.02,-0.00,-0.35,6.71,7.25,0.03,0.01,-0.02,0.40,-0.17,0.91,0.18,0.37,-0.06,R
7.274,255,125,177,255,240,-2.17,-2.63,9.40,0.00,0.02,-0.01,-3.47,1.18,9.09,-0.01,0.02,0.00,-2.76,3.05,8.91,-0.03,0.01,-0.00,-1.24,1.77,9.62,-0.01,0.01,-0.00,-0.29,6.74,7.33,-0.01,0.02,-0.01,0.41,-0.17,0.91,0.24,-0.49,-0.06,R
7.323,255,125,176,255,240,-2.01,-2.43,9.45,-0.01,0.04,-0.01,-3.67,1.30,9.57,-0.04,0.08,-0.02,-2.71,2.56,8.92,0.01,0.03,-0.00,-1.22,1.64,9.19,-0.02,0.04,0.00,-0.29,7.03,7.23,-0.01,0.03,-0.01,0.41,-0.16,0.91,-0.61,0.12,0.43,R
7.375,255,125,176,255,240,-2.16,-2.64,9.46,0.01,0.02,-0.01,-3.62,1.14,9.17,0.00,0.04,0.00,-2.63,3.10,8.96,-0.01,0.02,0.00,-1.22,1.76,9.65,0.01,0.02,0.00,-0.36,6.74,7.29,0.01,0.02,-0.01,0.41,-0.17,0.90,-0.12,0.12,0.12,R
7.426,255,126,177,255,240,-2.07,-2.62,9.43,0.00,0.02,-0.04,-3.53,1.16,9.17,-0.04,0.07,-0.01,-2.60,3.11,8.95,-0.06,0.02,-0.01,-1.15,1.74,9.66,-0.02,0.03,-0.01,-0.34,6.71,7.32,-0.01,0.03,-0.02,0.41,-0.16,0.91,-0.55,-1.04,0.55,R
7.478,255,125,176,255,241,-2.15,-2.81,9.45,-0.06,0.04,-0.02,-3.56,0.92,9.27,-0.01,0.05,0.01,-2.69,3.05,8.94,-0.02,0.04,-0.00,-1.17,1.71,9.58,0.02,0.04,-0.01,-0.47,6.87,7.09,0.04,0.00,-0.00,0.40,-0.16,0.91,-0.85,-0.24,0.85,R
7.528,255,124,175,255,239,-2.10,-2.77,9.39,0.01,0.03,-0.01,-3.66,1.24,9.09,-0.03,0.07,0.00,-2.70,3.05,8.92,-0.04,0.02,0.00,-1.19,1.80,9.58,0.01,0.02,-0.01,-0.35,6.72,7.31,-0.02,0.01,-0.01,0.42,-0.16,0.91,-0.31,0.49,0.00,R
7.579,255,125,173,255,240,-2.13,-2.75,9.39,-0.02,0.02,-0.01,-3.63,1.03,9.15,-0.04,0.05,-0.00,-2.63,3.06,8.91,-0.05,0.01,-0.00,-1.21,1.78,9.62,0.01,0.02,-0.01,-0.38,6.75,7.34,0.03,0.02,-0.01,0.40,-0.16,0.91,0.43,0.31,0.12,R
7.629,255,131,174,255,240,-2.15,-2.80,9.35,0.01,0.02,-0.00,-3.57,1.15,9.10,0.04,0.01,0.00,-2.77,3.09,8.86,0.00,0.02,0.01,-1.18,1.83,9.65,0.00,0.01,0.00,-0.36,6.72,7.29,0.01,0.01,-0.01,0.41,-0.16,0.91,0.18,0.18,0.31,R
7.681,255,126,176,255,240,-2.09,-2.79,9.28,0.01,0.02,-0.01,-3.60,1.11,9.00,0.01,0.03,0.00,-2.72,3.09,8.88,-0.01,0.01,0.00,-1.20,1.81,9.59,-0.02,0.01,0.00,-0.35,6.81,7.30,-0.02,0.02,-0.01,0.41,-0.16,0.90,0.73,-0.24,0.31,R
7.732,255,126,174,255,240,-2.19,-2.86,9.47,-0.01,0.04,0.00,-3.66,1.07,9.15,0.01,0.03,0.01,-2.68,2.94,8.93,-0.02,0.02,0.01,-1.21,1.75,9.61,0.00,0.02,0.00,-0.34,6.67,7.33,0.03,0.02,-0.00,0.40,-0.16,0.91,0.55,0.92,0.31,R
7.783,255,125,175,255,240,-2.13,-2.76,9.38,0.02,0.02,-0.01,-3.63,1.14,9.15,-0.00,0.03,0.00,-2.72,3.04,8.92,-0.02,0.02,0.00,-1.26,1.85,9.67,-0.00,0.01,-0.00,-0.40,6.75,7.30,0.01,0.02,-0.01,0.41,-0.16,0.90,0.49,-0.06,0.24,R
7.834,255,125,175,255,240,-2.24,-2.81,9.42,0.01,0.02,-0.01,-3.68,1.10,9.22,-0.01,0.04,0.01,-2.68,3.14,8.90,-0.02,0.01,0.00,-1.34,1.67,9.62,0.03,0.01,0.01,-0.31,6.77,7.34,0.02,0.02,-0.02,0.41,-0.16,0.91,0.43,0.61,0.43,R
7.888,255,125,175,255,239,-2.13,-2.86,9.37,-0.01,0.02,-0.01,-3.63,1.14,9.21,0.02,-0.03,0.06,-2.70,3.08,8.89,-0.01,0.02,0.01,-1.15,1.73,9.67,0.03,0.03,-0.00,-0.36,6.68,7.32,0.02,0.02,-0.02,0.41,-0.16,0.91,0.00,-0.37,0.43,R
7.936,255,123,175,255,239,-2.13,-2.77,9.36,0.01,0.03,-0.01,-3.54,1.08,8.77,0.05,0.01,0.00,-2.64,3.31,8.83,0.00,0.03,0.00,-1.29,1.70,9.54,0.00,0.05,0.01,-0.36,6.88,7.23,0.02,0.02,-0.01,0.41,-0.16,0.91,0.24,0.79,0.00,R
7.987,255,122,174,255,240,-2.17,-2.75,9.44,-0.02,0.04,-0.01,-3.62,1.16,9.06,-0.01,0.05,-0.00,-2.75,3.11,8.90,-0.03,0.02,-0.00,-1.20,1.76,9.62,-0.01,0.02,-0.01,-0.31,6.72,7.36,0.01,0.02,-0.01,0.41,-0.16,0.90,0.37,-0.49,0.00,R
8.039,255,121,174,255,240,-2.13,-2.79,9.34,-0.01,0.02,-0.01,-3.68,1.14,9.21,0.01,0.04,0.00,-2.79,3.15,8.88,-0.01,0.03,0.00,-1.25,1.92,9.60,0.01,0.02,-0.00,-0.37,6.78,7.27,-0.01,0.02,-0.00,0.41,-0.16,0.91,0.24,0.12,0.00,R
8.09,255,120,174,255,241,-2.16,-2.88,9.35,-0.01,0.03,-0.01,-3.68,1.11,9.14,-0.01,0.06,-0.01,-2.74,3.10,8.91,-0.02,0.01,-0.00,-1.24,1.81,9.59,-0.01,0.02,0.00,-0.35,6.74,7.32,0.02,0.02,-0.01,0.41,-0.16,0.91,0.18,-0.24,-0.12,R
8.14,255,120,174,255,240,-2.19,-2.65,9.36,-0.01,0.03,-0.02,-3.72,1.29,9.11,-0.01,0.04,-0.00,-2.81,3.15,8.86,-0.05,0.01,-0.00,-1.27,1.75,9.62,-0.02,0.01,-0.01,-0.33,6.80,7.25,0.01,0.02,-0.02,0.41,-0.16,0.91,0.49,-0.73,0.12,R
8.192,255,120,175,255,240,-2.22,-2.83,9.39,-0.01,0.02,-0.01,-3.62,1.09,9.01,-0.01,0.05,0.01,-2.79,3.04,8.91,-0.02,0.01,0.01,-1.23,1.79,9.64,0.00,0.02,0.01,-0.36,6.86,7.30,0.00,0.02,0.00,0.41,-0.16,0.91,0.43,0.67,-0.12,R
8.242,255,120,174,255,240,-2.16,-2.75,9.38,-0.01,0.03,-0.01,-3.75,1.14,9.15,-0.02,0.04,-0.01,-2.80,3.07,8.92,-0.05,-0.00,-0.01,-1.25,1.80,9.64,-0.01,0.01,-0.00,-0.36,6.78,7.29,0.00,0.01,-0.01,0.41,-0.16,0.91,0.43,-0.85,0.06,R
8.293,255,120,174,255,239,-2.21,-2.78,9.39,0.01,0.01,0.00,-3.73,1.24,9.05,-0.02,0.03,0.00,-2.76,3.02,8.86,-0.03,0.00,0.00,-1.23,1.81,9.61,-0.01,0.01,-0.01,-0.40,6.72,7.31,-0.00,0.02,-0.01,0.41,-0.16,0.90,0.92,0.37,0.06,R
8.344,255,119,174,255,239,-2.25,-2.88,9.39,-0.01,0.02,-0.00,-3.75,1.11,9.17,-0.03,0.03,0.00,-2.80,3.00,8.73,-0.03,0.01,0.00,-1.21,1.85,9.51,-0.01,0.01,0.00,-0.51,6.96,7.57,0.02,0.02,-0.01,0.41,-0.16,0.91,0.43,0.12,0.00,R
8.397,255,120,174,255,240,-2.16,-2.86,9.32,0.00,0.00,-0.01,-3.73,1.19,9.14,-0.01,0.02,-0.00,-2.74,3.09,8.88,-0.03,0.01,0.00,-1.19,1.82,9.62,-0.01,0.01,0.00,-0.33,6.75,7.24,0.00,0.03,-0.00,0.41,-0.16,0.91,0.85,-0.43,0.00,R
8.448,255,120,174,255,239,-2.33,-2.78,9.44,0.01,0.01,-0.00,-3.80,1.04,9.19,-0.01,0.03,-0.00,-2.79,3.02,8.95,-0.03,0.01,0.01,-1.25,1.84,9.62,-0.01,0.02,0.01,-0.40,6.74,7.30,-0.00,0.02,0.00,0.41,-0.16,0.91,0.73,0.24,0.06,R
8.499,255,120,174,255,239,-2.17,-2.85,9.35,0.02,0.01,-0.02,-3.76,1.15,9.13,-0.02,0.03,-0.01,-2.82,3.12,8.87,-0.01,0.01,0.00,-1.28,1.91,9.60,-0.00,0.01,0.00,-0.42,6.83,7.24,0.01,0.03,-0.00,0.41,-0.16,0.91,0.24,0.12,-0.12,R
8.55,255,120,176,255,240,-2.16,-2.94,9.36,-0.02,0.01,0.01,-3.78,1.02,9.16,-0.04,0.05,0.01,-2.72,3.09,8.90,-0.04,0.01,0.00,-1.19,1.80,9.59,-0.00,0.01,0.00,-0.33,6.71,7.32,0.01,0.02,-0.01,0.41,-0.16,0.90,0.61,0.00,0.24,R
8.599,255,120,175,255,240,-2.06,-2.79,9.33,0.01,0.01,-0.01,-3.81,1.16,9.17,-0.05,0.04,-0.02,-2.83,3.04,8.88,-0.05,0.00,-0.00,-1.24,1.83,9.60,-0.02,0.01,0.00,-0.37,6.75,7.31,-0.01,0.03,-0.01,0.41,-0.16,0.91,0.55,-0.79,-0.12,R
8.649,255,119,174,255,240,-2.10,-2.79,9.32,0.00,0.01,-0.00,-3.78,1.11,9.12,-0.02,0.03,0.01,-2.79,3.01,8.89,-0.02,0.01,0.00,-1.21,1.81,9.59,0.00,0.01,0.01,-0.32,6.83,7.29,0.03,0.02,-0.00,0.41,-0.16,0.91,0.61,0.43,0.00,R
8.701,255,119,175,255,239,-2.22,-2.79,9.38,0.01,0.02,-0.00,-3.78,1.08,9.19,-0.03,0.03,-0.01,-2.78,3.09,8.88,-0.04,-0.00,0.00,-1.28,1.84,9.59,-0.01,0.01,-0.00,-0.35,6.80,7.29,0.00,0.02,-0.01,0.41,-0.16,0.91,0.67,-0.73,-0.18,R
8.752,255,120,175,255,239,-2.14,-2.93,9.40,-0.01,0.01,0.00,-3.78,1.12,9.10,0.01,0.02,0.01,-2.79,3.09,8.94,-0.00,0.01,0.01,-1.21,1.93,9.63,0.01,0.01,0.01,-0.34,6.75,7.32,0.02,0.02,-0.00,0.41,-0.16,0.91,0.55,0.49,0.06,R
8.803,255,120,174,255,238,-2.23,-2.73,9.40,0.01,0.01,-0.00,-3.78,1.11,9.05,0.00,0.02,-0.01,-2.79,3.11,8.87,-0.04,0.00,0.00,-1.26,1.88,9.58,-0.00,0.02,0.00,-0.34,6.79,7.27,0.01,0.02,-0.01,0.41,-0.16,0.91,0.61,-0.18,0.06,R
8.854,255,121,174,255,238,-2.25,-2.83,9.45,-0.00,0.01,-0.01,-3.80,1.24,9.09,0.00,0.02,0.01,-2.75,3.11,8.93,-0.04,0.01,0.00,-1.22,1.81,9.61,-0.01,0.01,0.00,-0.34,6.83,7.24,0.01,0.02,-0.02,0.41,-0.16,0.91,0.37,-0.31,0.12,R
8.906,255,120,174,255,239,-2.21,-2.83,9.33,0.02,0.01,-0.00,-3.83,1.12,9.14,-0.02,0.03,0.01,-2.83,3.05,8.90,-0.03,0.00,0.01,-1.27,1.82,9.60,0.01,0.01,0.00,-0.39,6.74,7.23,0.03,0.02,-0.00,0.41,-0.16,0.91,0.85,0.79,0.06,R
8.961,255,121,175,255,240,-2.14,-2.86,9.22,-0.00,0.01,-0.01,-3.73,1.13,8.99,0.00,0.02,0.01,-2.77,3.04,8.83,-0.03,-0.00,-0.00,-1.27,1.75,9.65,-0.01,0.01,-0.01,-0.29,6.68,7.15,-0.02,0.01,-0.01,0.41,-0.16,0.91,0.24,-0.92,-0.06,R
9.007,255,121,174,255,244,-2.24,-3.05,9.44,-0.00,0.01,0.00,-3.73,1.10,9.05,0.01,0.02,0.00,-2.85,3.07,8.89,0.00,0.01,0.01,-1.26,1.85,9.54,-0.00,0.01,0.00,-0.34,6.77,7.29,0.02,0.02,-0.01,0.41,-0.16,0.90,0.43,0.49,0.24,R
9.058,255,120,175,255,240,-2.21,-2.84,9.37,-0.02,0.01,-0.00,-3.75,1.09,9.09,-0.03,0.02,0.01,-2.82,3.00,8.90,-0.04,0.00,0.00,-1.27,1.86,9.64,-0.01,0.01,0.00,-0.43,6.82,7.24,0.01,0.02,-0.01,0.41,-0.16,0.91,0.67,-0.18,0.12,R
9.109,255,121,174,255,240,-2.22,-2.68,9.38,-0.01,0.00,-0.01,-3.73,1.17,9.06,-0.02,0.02,0.01,-2.73,3.04,8.87,-0.05,0.00,0.00,-1.24,1.83,9.58,-0.02,0.01,-0.00,-0.41,6.77,7.27,-0.02,0.03,-0.01,0.41,-0.16,0.91,0.55,-0.79,0.31,R
9.162,255,120,175,255,239,-2.17,-2.81,9.38,-0.01,0.02,-0.01,-3.81,1.09,8.88,-0.06,0.03,-0.00,-2.81,3.11,8.92,-0.07,-0.01,0.00,-1.27,1.83,9.62,-0.03,0.01,0.00,-0.38,6.73,7.24,-0.01,0.02,-0.02,0.42,-0.17,0.91,0.79,-0.79,-0.18,R
9.211,255,120,174,255,238,-2.09,-2.94,9.37,-0.01,0.02,-0.02,-3.77,1.03,9.08,-0.06,0.03,-0.01,-2.72,2.97,8.89,-0.03,-0.01,0.00,-1.17,1.81,9.57,-0.00,0.01,0.00,-0.38,6.75,7.35,0.02,0.02,-0.01,0.40,-0.15,0.91,0.92,-0.24,-0.31,R
9.262,255,121,174,255,240,-2.22,-2.67,9.35,-0.00,0.01,0.01,-3.83,1.13,9.09,-0.07,0.04,0.00,-2.82,3.03,8.89,-0.05,-0.01,0.00,-1.29,1.80,9.58,-0.01,0.01,-0.00,-0.38,6.78,7.31,-0.01,0.02,-0.01,0.41,-0.16,0.90,0.98,-0.49,0.12,R
9.313,255,121,176,255,239,-2.19,-2.80,9.37,-0.02,0.00,-0.01,-3.81,0.97,9.15,-0.05,0.04,0.00,-2.76,2.95,8.91,-0.06,-0.00,-0.00,-1.24,1.74,9.57,-0.00,0.01,-0.00,-0.33,6.79,7.26,0.02,0.02,-0.01,0.41,-0.16,0.91,0.67,-0.37,0.06,R
9.364,255,121,174,255,240,-2.15,-2.69,9.38,0.00,0.03,0.03,-3.73,0.99,9.13,-0.03,0.04,0.00,-2.82,2.92,8.97,-0.05,0.00,0.00,-1.27,1.63,9.68,-0.01,0.01,0.00,-0.36,6.81,7.35,0.01,0.02,-0.01,0.41,-0.16,0.91,0.73,-0.24,0.00,R
9.415,255,121,174,255,239,-2.27,-2.87,9.35,0.00,0.02,-0.01,-3.82,0.95,9.18,-0.02,0.03,-0.00,-2.80,3.00,8.93,-0.03,0.01,0.00,-1.30,1.81,9.55,0.00,0.01,0.00,-0.39,6.77,7.27,0.02,0.02,-0.01,0.40,-0.16,0.91,0.73,0.06,-0.06,R
9.466,255,121,174,255,239,-2.22,-2.81,9.39,0.00,0.01,0.01,-3.84,1.10,9.09,-0.00,0.03,0.01,-2.82,3.04,8.91,-0.05,0.01,0.01,-1.24,1.79,9.59,-0.01,0.01,0.00,-0.41,6.80,7.31,0.01,0.02,-0.01,0.41,-0.16,0.91,0.73,0.06,0.24,R
9.518,255,121,176,255,240,-2.18,-2.80,9.38,-0.01,0.01,-0.01,-3.79,0.95,9.16,-0.02,0.03,0.00,-2.72,2.94,8.98,-0.03,0.01,0.00,-1.28,1.83,9.61,0.00,0.01,0.00,-0.39,6.79,7.31,0.03,0.02,-0.01,0.40,-0.16,0.91,0.73,0.06,0.18,R
9.568,255,120,175,255,240,-2.17,-2.80,9.33,0.00,0.01,-0.00,-3.79,1.05,9.03,-0.00,0.02,0.01,-2.83,2.99,8.90,-0.04,0.01,0.00,-1.28,1.83,9.56,-0.02,0.01,-0.00,-0.39,6.79,7.24,-0.01,0.02,-0.01,0.41,-0.16,0.90,0.49,-0.12,0.24,R
9.618,255,121,175,255,240,-2.17,-2.88,9.40,0.01,0.01,0.00,-3.86,1.00,9.04,0.00,0.03,0.00,-2.79,2.94,8.94,-0.01,0.01,0.01,-1.28,1.86,9.63,0.01,0.01,0.00,-0.40,6.79,7.28,0.01,0.02,0.00,0.41,-0.16,0.91,0.49,0.49,0.06,R
9.669,255,121,176,255,239,-2.22,-2.78,9.34,-0.02,0.01,0.01,-3.79,1.02,9.17,0.00,0.02,0.02,-2.74,2.96,8.93,-0.03,0.00,0.01,-1.19,1.81,9.59,0.01,0.01,0.00,-0.33,6.75,7.30,0.02,0.01,-0.01,0.41,-0.16,0.91,0.12,0.31,0.12,R
9.721,255,121,174,255,239,-2.09,-2.91,9.34,0.01,0.02,0.00,-3.81,0.90,9.20,-0.01,0.01,-0.01,-2.75,3.02,8.84,-0.01,0.01,0.00,-1.30,1.86,9.64,-0.00,0.02,-0.00,-0.35,6.75,7.31,0.00,0.02,-0.01,0.41,-0.16,0.91,0.49,-0.55,-0.49,R
9.772,255,121,175,255,240,-2.20,-2.81,9.36,0.01,0.02,0.00,-3.82,1.07,9.03,0.00,0.02,0.01,-2.75,3.06,8.90,-0.02,0.01,0.00,-1.32,1.82,9.62,-0.01,0.02,0.00,-0.34,6.79,7.27,0.01,0.02,-0.02,0.42,-0.16,0.91,0.00,0.79,-0.06,R
9.824,255,121,175,255,239,-2.18,-2.87,9.35,-0.00,0.01,-0.01,-3.81,0.87,9.10,-0.03,0.03,-0.01,-2.75,2.97,8.88,-0.03,0.01,-0.01,-1.32,1.84,9.63,-0.01,0.02,-0.01,-0.42,6.80,7.28,0.01,0.02,-0.02,0.40,-0.16,0.91,0.24,-0.73,-0.37,R
9.874,255,121,175,255,239,-2.23,-2.81,9.37,0.01,0.02,-0.00,-3.80,1.04,9.15,-0.00,0.03,0.00,-2.75,3.07,8.92,-0.02,0.01,0.01,-1.24,1.83,9.61,-0.01,0.01,-0.00,-0.37,6.80,7.22,0.01,0.02,-0.02,0.42,-0.16,0.90,0.55,0.18,-0.12,R
9.926,255,121,175,255,240,-2.16,-2.88,9.39,0.00,0.01,-0.00,-3.80,0.96,9.09,-0.01,0.02,0.00,-2.79,3.06,8.97,-0.02,0.00,0.00,-1.22,1.77,9.65,-0.01,0.01,0.01,-0.37,6.78,7.29,0.01,0.02,-0.01,0.41,-0.16,0.91,0.79,-0.18,0.06,R
9.976,255,121,175,255,240,-2.15,-2.86,9.37,-0.01,0.01,0.01,-3.83,1.05,9.14,-0.02,0.03,0.01,-2.79,2.96,8.90,-0.04,0.01,0.01,-1.24,1.81,9.62,-0.00,0.01,-0.00,-0.40,6.84,7.22,0.01,0.02,-0.01,0.41,-0.16,0.91,0.67,0.06,0.31,R
10.027,255,121,175,255,240,-2.23,-2.79,9.36,0.02,0.02,0.00,-3.80,1.10,9.03,0.01,0.01,-0.01,-2.73,3.01,8.90,-0.04,0.01,-0.01,-1.27,1.84,9.60,-0.01,0.01,-0.00,-0.37,6.79,7.30,0.00,0.02,-0.01,0.41,-0.16,0.91,0.43,-0.12,0.18,R
10.079,255,121,175,255,239,-2.17,-2.96,9.29,-0.01,0.02,-0.00,-3.85,0.99,9.12,-0.00,0.02,-0.00,-2.72,3.06,8.96,-0.02,0.00,0.00,-1.23,1.84,9.64,-0.01,0.01,0.01,-0.38,6.77,7.25,0.02,0.02,-0.01,0.41,-0.16,0.91,0.61,0.18,0.06,R
10.129,255,121,174,255,240,-2.17,-2.89,9.38,0.02,0.02,-0.00,-3.77,1.08,9.04,0.02,0.01,0.01,-2.84,3.00,8.88,0.00,0.01,0.01,-1.27,1.87,9.63,0.00,0.01,0.00,-0.34,6.84,7.26,0.01,0.02,-0.01,0.41,-0.16,0.90,0.55,0.18,0.12,R
10.18,255,121,176,255,240,-2.28,-2.72,9.38,-0.02,0.01,-0.01,-3.81,0.95,9.12,-0.03,0.03,0.00,-2.80,2.98,8.88,-0.05,0.01,0.00,-1.29,1.89,9.61,0.00,0.01,-0.00,-0.37,6.74,7.29,0.02,0.02,-0.01,0.41,-0.16,0.91,0.79,-0.06,0.12,R
10.232,255,121,175,255,238,-2.13,-2.83,9.35,-0.00,0.01,-0.01,-3.82,1.02,8.99,-0.01,0.02,-0.00,-2.82,3.01,8.90,-0.04,0.00,-0.00,-1.29,1.83,9.57,-0.02,0.01,-0.01,-0.34,6.70,7.23,-0.00,0.02,-0.02,0.41,-0.16,0.91,0.79,-0.73,0.06,R
10.281,255,121,176,255,240,-2.26,-2.70,9.40,0.00,0.01,-0.00,-3.82,1.03,9.05,-0.01,0.03,0.01,-2.81,3.00,8.92,-0.03,0.00,0.01,-1.28,1.88,9.59,-0.01,0.01,0.01,-0.38,6.85,7.26,0.01,0.02,-0.01,0.42,-0.16,0.91,0.73,0.37,0.12,R
10.333,255,123,176,255,239,-2.16,-2.87,9.31,0.00,0.02,-0.02,-3.84,0.94,9.08,0.01,0.01,-0.01,-2.79,3.05,9.00,-0.01,0.00,-0.01,-1.21,1.79,9.61,-0.00,0.00,-0.00,-0.47,6.91,7.41,0.02,0.01,-0.01,0.40,-0.16,0.91,0.49,-0.73,-0.12,R
10.383,255,122,176,255,238,-2.18,-2.97,9.37,0.01,0.01,0.01,-3.88,0.99,9.18,0.04,-0.00,0.01,-2.79,3.03,8.91,0.02,0.01,0.01,-1.24,1.86,9.59,0.01,0.01,0.01,-0.37,6.85,7.25,0.02,0.01,-0.01,0.42,-0.16,0.91,0.73,1.04,0.06,R
10.435,255,121,174,255,239,-2.19,-2.83,9.33,0.01,0.01,-0.01,-3.80,1.06,9.04,-0.01,0.02,0.00,-2.83,2.96,8.94,-0.03,0.01,-0.00,-1.25,1.82,9.49,-0.01,0.01,-0.00,-0.08,6.34,6.70,-0.04,0.02,-0.00,0.41,-0.16,0.91,0.61,-0.49,0.12,R
10.486,255,121,174,255,239,-2.24,-2.84,9.31,-0.01,0.01,0.00,-3.77,1.05,8.92,-0.01,0.02,0.01,-2.82,3.06,8.90,-0.06,-0.00,0.01,-1.36,1.92,9.71,-0.02,0.00,-0.00,-0.41,6.85,7.35,0.01,0.02,-0.01,0.42,-0.16,0.91,0.98,0.00,0.18,R
10.537,255,121,175,255,239,-2.18,-2.82,9.21,-0.01,0.01,-0.01,-3.70,1.08,8.88,-0.00,0.03,0.00,-2.72,3.04,8.89,-0.04,-0.00,0.01,-1.28,1.80,9.57,-0.00,0.00,0.00,-0.34,6.81,7.32,0.03,0.02,0.00,0.40,-0.16,0.91,0.85,0.00,-0.12,R
10.588,255,121,175,255,239,-2.24,-2.81,9.31,0.02,0.02,0.01,-3.85,1.08,8.98,0.01,0.02,0.00,-2.84,3.06,8.83,-0.02,0.01,0.01,-1.27,1.84,9.53,-0.01,0.01,0.00,-0.34,6.71,7.25,0.00,0.02,-0.01,0.41,-0.16,0.90,1.34,0.31,0.43,R
10.638,255,121,175,255,240,-2.23,-2.89,9.44,0.01,0.01,0.01,-3.89,1.08,9.21,-0.02,0.03,0.01,-2.75,3.02,8.96,-0.03,0.01,0.01,-1.22,1.79,9.67,-0.00,0.01,0.00,-0.38,6.79,7.28,-0.00,0.02,-0.01,0.41,-0.16,0.91,0.55,0.12,0.24,R
10.69,255,121,174,255,238,-2.23,-2.85,9.32,-0.01,0.01,-0.00,-3.73,1.07,9.05,-0.01,0.02,0.01,-2.76,2.98,8.88,-0.02,0.01,-0.00,-1.21,1.80,9.54,0.01,0.02,0.01,-0.43,6.80,7.21,0.02,0.02,-0.01,0.40,-0.16,0.90,0.61,0.31,0.18,R
10.742,255,121,176,255,237,-2.25,-2.70,9.33,0.01,0.02,0.01,-3.84,1.13,9.03,0.01,0.02,0.01,-2.86,3.02,8.88,-0.02,0.01,0.01,-1.27,1.90,9.57,-0.00,0.01,0.00,-0.41,6.83,7.24,-0.01,0.02,-0.01,0.42,-0.16,0.90,0.85,0.12,0.18,R
10.792,255,121,176,255,240,-2.24,-2.76,9.31,-0.00,0.02,-0.02,-3.80,1.13,9.10,-0.03,0.03,-0.00,-2.75,3.03,8.94,-0.06,-0.00,0.00,-1.23,1.72,9.57,-0.02,0.01,-0.00,-0.39,6.75,7.28,0.00,0.02,-0.01,0.40,-0.16,0.91,0.61,-0.49,0.12,R
10.843,255,121,176,255,238,-2.19,-2.68,9.34,0.00,0.02,-0.01,-3.71,1.06,8.97,-0.00,0.02,0.00,-2.83,3.04,8.89,-0.04,0.00,0.01,-1.28,1.89,9.58,-0.01,0.01,-0.01,-0.41,6.79,7.19,0.01,0.02,-0.01,0.42,-0.16,0.90,0.85,-0.12,0.06,R
10.894,255,122,176,255,240,-2.19,-2.72,9.25,0.02,0.03,-0.01,-3.78,1.08,9.08,-0.01,0.02,0.01,-2.74,3.02,8.90,-0.05,0.00,0.00,-1.27,1.83,9.60,-0.01,0.01,-0.01,-0.40,6.90,7.27,0.01,0.01,-0.01,0.41,-0.16,0.90,0.73,0.12,-0.06,R
10.945,255,121,175,255,239,-2.16,-2.85,9.33,-0.02,0.03,-0.01,-3.82,1.02,9.04,-0.01,0.03,-0.00,-2.85,2.97,8.89,-0.03,0.01,-0.00,-1.24,1.99,9.62,-0.00,0.01,-0.01,-0.38,6.78,7.26,0.01,0.02,-0.01,0.40,-0.16,0.90,0.61,-0.61,0.06,R
10.996,255,121,175,255,239,-2.24,-2.82,9.37,0.01,0.01,-0.01,-3.82,1.06,9.10,0.00,0.03,0.01,-2.78,3.03,8.93,-0.02,0.01,0.01,-1.25,1.80,9.58,-0.00,0.01,0.00,-0.35,6.82,7.25,-0.00,0.02,-0.01,0.41,-0.16,0.90,0.55,-0.06,0.06,R
11.047,255,121,174,255,239,-2.21,-2.83,9.37,0.01,0.02,-0.02,-3.83,1.02,9.09,-0.01,0.02,-0.00,-2.82,3.06,8.94,-0.03,0.00,-0.00,-1.27,1.85,9.55,-0.01,0.01,-0.01,-0.34,6.78,7.28,-0.01,0.02,-0.02,0.41,-0.16,0.91,0.43,-0.61,-0.24,R
11.098,255,121,175,255,239,-2.23,-3.01,9.31,-0.02,0.02,-0.00,-3.86,0.88,9.26,-0.01,0.02,0.00,-2.77,2.90,8.88,-0.01,0.00,0.00,-1.21,1.84,9.63,0.01,0.01,0.00,-0.37,6.76,7.25,0.02,0.02,-0.00,0.41,-0.16,0.91,0.67,0.18,0.12,R
11.149,255,121,174,255,238,-2.17,-2.75,9.31,0.01,0.02,-0.00,-3.75,1.25,8.92,-0.01,0.02,-0.01,-2.85,3.10,8.87,-0.05,-0.00,-0.00,-1.29,1.84,9.56,-0.03,0.01,-0.00,-0.39,6.75,7.27,-0.03,0.02,-0.02,0.42,-0.16,0.91,0.73,-0.67,0.00,R
11.2,255,120,174,255,238,-2.25,-2.98,9.34,-0.01,0.02,-0.00,-3.80,1.05,9.13,-0.01,0.03,0.00,-2.72,2.97,8.93,-0.02,0.00,0.01,-1.21,1.78,9.56,0.00,0.01,0.01,-0.38,6.76,7.26,0.01,0.02,-0.01,0.41,-0.16,0.90,0.79,0.67,0.24,R
11.254,255,121,174,255,240,-2.17,-2.79,9.38,0.01,0.01,-0.01,-3.84,1.07,9.06,0.00,0.01,-0.00,-2.75,3.04,8.84,-0.04,0.00,-0.00,-1.32,1.85,9.60,-0.02,0.01,-0.00,-0.40,6.76,7.23,-0.00,0.01,-0.01,0.41,-0.16,0.91,0.67,-0.79,0.06,R
11.301,255,121,174,255,237,-2.22,-2.83,9.34,0.01,0.02,0.00,-3.78,1.02,9.14,0.00,0.02,0.01,-2.72,2.96,8.95,-0.01,0.00,0.01,-1.23,1.88,9.62,-0.00,0.01,-0.00,-0.33,6.86,7.26,0.00,0.01,-0.01,0.41,-0.16,0.91,0.92,0.49,0.06,R
11.353,255,120,174,255,239,-2.19,-2.86,9.37,-0.01,0.01,-0.00,-3.74,1.07,9.05,-0.01,0.02,-0.00,-2.75,2.97,8.88,-0.03,0.00,0.00,-1.24,1.80,9.56,0.00,0.01,-0.00,-0.34,6.79,7.23,0.02,0.02,-0.01,0.40,-0.16,0.91,0.61,0.12,0.00,R
11.403,255,121,175,255,240,-2.23,-2.78,9.39,0.01,0.02,0.00,-3.85,1.13,9.12,0.01,0.03,0.00,-2.79,3.06,8.92,-0.02,0.01,0.00,-1.26,1.87,9.61,0.00,0.01,-0.00,-0.42,6.81,7.19,-0.00,0.02,-0.01,0.41,-0.16,0.91,0.49,-0.12,0.18,R
11.455,255,121,176,255,239,-2.24,-2.92,9.29,-0.01,0.02,-0.01,-3.76,1.07,9.13,-0.03,0.03,-0.01,-2.86,2.99,8.87,-0.04,0.00,-0.00,-1.28,1.80,9.58,-0.01,0.01,-0.01,-0.41,6.76,7.27,0.00,0.02,-0.01,0.41,-0.16,0.91,0.73,-0.18,0.00,R
11.506,255,121,175,255,240,-2.22,-2.82,9.32,0.02,0.01,-0.01,-3.77,1.13,9.04,-0.01,0.02,-0.01,-2.75,3.03,8.91,-0.04,-0.00,-0.00,-1.28,1.87,9.62,-0.01,0.01,-0.01,-0.39,6.82,7.31,-0.00,0.02,-0.01,0.42,-0.16,0.91,0.73,-0.61,-0.06,R
11.556,255,121,176,255,240,-2.28,-2.59,9.40,0.04,0.01,0.01,-3.78,1.08,9.10,0.01,0.02,0.00,-2.87,2.99,9.01,-0.02,0.01,0.01,-1.26,1.81,9.54,0.00,0.01,0.00,-0.31,6.68,7.15,0.01,0.02,-0.01,0.41,-0.16,0.90,0.85,0.55,0.00,R
11.618,255,121,174,255,240,-2.18,-2.80,9.33,0.01,0.01,-0.01,-3.79,1.05,8.99,-0.02,0.02,0.00,-2.71,3.01,8.92,-0.04,0.01,0.01,-1.24,1.79,9.60,-0.00,0.01,-0.01,-0.37,6.76,7.24,0.01,0.02,-0.01,0.41,-0.16,0.91,0.37,-0.31,0.12,R
11.659,255,121,174,255,238,-2.22,-2.86,9.39,-0.01,0.01,0.00,-3.84,1.00,9.13,-0.02,0.03,0.00,-2.82,2.97,8.90,-0.03,0.01,-0.00,-1.25,1.86,9.55,-0.01,0.01,-0.00,-0.37,6.79,7.25,-0.01,0.02,-0.01,0.41,-0.16,0.91,0.85,-0.06,0.18,R
11.71,255,121,175,255,238,-2.16,-2.85,9.27,0.02,0.01,-0.01,-3.85,1.16,9.17,-0.02,0.02,0.00,-2.78,2.96,8.96,-0.04,0.01,0.00,-1.32,1.84,9.62,0.00,0.01,0.00,-0.35,6.72,7.17,0.01,0.02,-0.01,0.41,-0.16,0.91,0.79,0.37,0.06,R
11.765,255,122,176,255,239,-2.20,-2.93,9.31,0.01,0.01,0.00,-3.80,1.02,9.14,-0.01,0.02,0.01,-2.78,2.97,8.91,-0.02,0.00,0.00,-1.26,1.82,9.58,0.00,0.01,-0.01,-0.36,6.74,7.23,-0.01,0.01,-0.01,0.41,-0.16,0.91,0.55,-0.55,0.06,R
11.815,255,121,174,255,238,-2.26,-2.92,9.36,0.02,0.01,0.01,-3.80,1.15,8.92,-0.00,0.03,0.01,-2.81,3.06,8.95,-0.02,0.01,0.01,-1.30,1.89,9.62,0.01,0.01,0.01,-0.38,6.86,7.27,0.02,0.02,-0.00,0.42,-0.16,0.91,0.73,0.98,0.18,R
11.863,255,121,175,255,240,-2.19,-2.78,9.26,-0.00,0.01,-0.01,-3.76,1.09,8.97,-0.02,0.02,0.01,-2.76,3.05,8.86,-0.04,0.00,0.00,-1.29,1.86,9.55,-0.01,0.02,-0.00,-0.36,6.87,7.16,0.01,0.01,-0.01,0.41,-0.16,0.90,0.79,-0.24,0.12,R
11.914,255,121,175,255,239,-2.22,-2.85,9.33,-0.01,0.01,0.00,-3.82,1.00,9.17,0.01,0.02,0.02,-2.82,2.95,8.94,-0.03,0.01,0.00,-1.32,1.83,9.60,0.00,0.01,0.00,-0.38,6.79,7.27,0.02,0.02,-0.01,0.41,-0.16,0.90,1.04,0.43,0.37,R
11.966,255,121,175,255,240,-2.23,-2.91,9.36,0.01,0.01,-0.02,-3.82,1.13,9.08,-0.03,0.03,-0.00,-2.79,3.04,8.93,-0.04,0.00,0.00,-1.27,1.78,9.62,-0.00,0.01,-0.01,-0.37,6.81,7.30,0.01,0.02,-0.00,0.40,-0.16,0.91,0.61,-0.37,0.12,R
12.018,255,122,176,255,239,-2.25,-2.80,9.30,0.03,0.01,-0.00,-3.86,1.14,9.04,0.01,0.03,0.02,-2.77,3.12,8.83,-0.01,0.01,0.01,-1.30,1.82,9.61,0.00,0.02,0.01,-0.39,6.84,7.23,0.01,0.02,0.00,0.42,-0.16,0.90,0.67,0.92,0.18,R
12.068,255,122,175,255,238,-2.21,-2.85,9.34,0.01,0.02,-0.00,-3.83,1.16,9.10,-0.01,0.03,0.01,-2.81,3.00,8.87,-0.02,0.00,0.00,-1.29,1.84,9.59,0.02,0.01,-0.00,-0.42,6.80,7.22,0.01,0.02,-0.00,0.41,-0.16,0.91,0.49,0.24,-0.06,R
12.118,255,121,176,255,236,-2.22,-2.83,9.38,0.02,0.02,-0.01,-3.85,1.13,9.02,0.01,0.01,0.00,-2.79,3.03,8.90,0.01,0.01,0.00,-1.20,1.82,9.56,0.00,0.01,0.00,-0.39,6.73,7.24,0.00,0.02,-0.01,0.41,-0.15,0.91,-0.24,-0.37,-0.24,R
12.169,255,121,175,255,240,-2.20,-2.75,9.28,0.01,0.03,-0.00,-3.80,0.98,9.12,0.02,0.02,0.00,-2.82,3.06,8.90,0.08,0.02,-0.00,-1.27,1.90,9.58,0.01,0.02,0.00,-0.43,6.85,7.23,0.02,0.01,-0.01,0.42,-0.16,0.90,0.00,0.43,-0.37,R
12.22,255,121,174,255,238,-2.26,-2.75,9.35,-0.00,0.02,-0.02,-3.78,1.08,8.97,-0.02,0.02,-0.01,-2.78,3.03,8.90,-0.07,0.00,-0.01,-1.25,1.84,9.63,-0.02,0.01,-0.01,-0.36,6.80,7.34,0.00,0.02,-0.02,0.41,-0.15,0.91,-0.31,-1.53,-0.31,R
12.271,255,121,175,255,238,-2.23,-2.92,9.35,0.01,0.02,-0.00,-3.86,0.98,9.20,0.05,0.01,0.01,-2.88,3.10,8.86,0.03,0.03,0.00,-1.26,1.87,9.55,0.02,0.02,0.01,-0.39,6.88,7.22,0.05,0.01,-0.01,0.41,-0.16,0.91,0.24,1.16,-0.31,R
12.324,255,121,174,255,238,-2.24,-2.82,9.30,0.02,0.02,0.00,-3.74,1.17,9.04,0.03,0.01,0.00,-2.81,3.18,8.81,-0.01,0.02,0.00,-1.08,2.05,9.65,-0.02,0.05,0.00,-0.38,6.75,7.24,0.11,0.02,-0.02,0.42,-0.16,0.90,0.31,0.24,0.06,R
12.373,255,121,174,255,238,-2.25,-2.89,9.28,0.01,0.02,-0.00,-3.79,1.18,9.06,-0.03,0.03,-0.00,-2.87,3.11,8.92,-0.01,0.01,0.01,-1.31,1.92,9.59,0.00,0.01,0.00,-0.38,6.84,7.23,0.02,0.01,-0.01,0.41,-0.16,0.91,0.49,0.49,0.00,R
12.425,255,120,174,255,238,-2.41,-2.77,9.33,0.00,0.03,-0.07,-3.73,1.25,9.09,0.02,0.02,0.01,-2.83,3.17,8.87,0.00,0.01,0.01,-1.31,1.88,9.58,0.01,0.02,0.01,-0.41,6.88,7.23,0.03,0.02,0.00,0.42,-0.16,0.90,0.55,1.34,0.18,R
12.475,255,122,174,255,239,-2.23,-2.60,9.36,-0.02,0.01,0.00,-3.72,1.24,8.97,0.01,0.02,0.00,-2.83,3.11,8.81,-0.06,0.00,-0.00,-1.30,1.91,9.58,-0.02,0.01,-0.01,-0.35,6.85,7.20,0.00,0.02,-0.01,0.41,-0.15,0.90,0.55,-0.55,0.55,R
12.531,255,121,174,255,238,-2.20,-2.89,9.34,-0.01,0.01,0.00,-3.70,1.18,9.03,0.01,0.02,0.01,-2.81,3.03,8.85,-0.02,0.01,0.00,-1.29,1.92,9.57,-0.01,0.01,-0.00,-0.37,6.77,7.20,0.01,0.02,-0.01,0.41,-0.15,0.91,0.31,0.37,0.37,R
12.583,255,122,174,255,239,-2.24,-2.75,9.29,-0.01,0.02,-0.00,-3.75,1.22,9.07,-0.02,0.03,0.00,-2.83,3.05,8.88,-0.04,0.01,-0.00,-1.36,1.86,9.61,-0.01,0.01,0.00,-0.36,6.86,7.16,0.03,0.02,-0.01,0.41,-0.16,0.90,0.43,0.49,0.37,R
12.63,255,120,176,255,239,-2.22,-2.76,9.30,0.00,0.01,0.00,-3.75,1.23,9.05,0.04,-0.00,0.01,-2.87,3.10,8.83,-0.02,0.02,0.00,-1.33,1.88,9.54,-0.00,0.02,0.00,-0.36,6.84,7.21,0.01,0.02,-0.00,0.41,-0.16,0.90,0.31,0.49,0.49,R
12.682,255,120,174,255,240,-2.25,-2.71,9.27,0.02,0.02,-0.01,-3.71,1.13,8.96,0.01,0.03,0.01,-2.87,3.22,8.91,-0.04,0.01,0.00,-1.31,1.81,9.57,-0.00,0.02,0.00,-0.40,6.90,7.16,0.01,0.02,-0.01,0.42,-0.15,0.90,0.06,0.37,0.37,R
12.73,255,121,174,255,238,-2.26,-2.72,9.34,0.00,0.02,-0.00,-3.73,1.32,8.96,0.02,0.02,0.01,-2.83,3.19,8.85,-0.03,0.01,-0.00,-1.30,1.86,9.60,-0.01,0.02,0.00,-0.42,6.87,7.17,0.01,0.02,-0.01,0.42,-0.15,0.90,0.43,0.31,0.37,R
12.783,255,121,174,255,237,-2.28,-2.83,9.40,0.01,0.01,0.00,-3.76,1.22,9.05,0.01,0.02,0.01,-2.82,3.13,8.84,-0.02,0.01,-0.00,-1.29,1.92,9.53,0.01,0.02,-0.00,-0.33,6.84,7.15,0.02,0.02,-0.02,0.42,-0.15,0.91,0.37,0.31,0.24,R
12.836,255,121,174,255,238,-2.21,-2.88,9.32,0.00,0.02,-0.00,-3.82,1.25,9.16,0.01,0.03,0.00,-2.82,3.07,8.86,-0.01,0.01,-0.00,-1.36,1.86,9.54,-0.01,0.01,0.00,-0.36,6.82,7.21,0.00,0.02,-0.01,0.42,-0.15,0.90,0.24,0.00,0.18,R
12.883,255,121,174,255,238,-2.26,-2.80,9.31,0.00,0.01,-0.01,-3.77,1.22,9.04,-0.01,0.03,0.01,-2.90,3.10,8.87,-0.02,0.01,0.01,-1.35,1.89,9.57,-0.00,0.01,0.00,-0.40,6.86,7.24,0.02,0.02,0.00,0.41,-0.16,0.90,0.31,0.79,0.24,R
12.935,255,121,173,255,239,-2.24,-2.68,9.40,-0.01,0.01,-0.00,-3.70,1.29,8.93,0.01,0.02,0.01,-2.83,3.11,8.84,-0.04,0.01,0.01,-1.32,1.92,9.55,-0.01,0.01,-0.00,-0.31,6.90,7.24,-0.01,0.02,-0.02,0.42,-0.15,0.90,0.37,-0.37,0.18,R
12.992,255,121,173,255,239,-2.31,-2.87,9.34,-0.01,0.01,0.00,-3.65,1.40,8.91,0.08,0.01,0.02,-3.00,3.18,8.91,-0.06,0.01,0.01,-1.34,1.79,9.58,-0.02,0.02,0.01,-0.39,6.80,7.23,0.01,0.02,-0.00,0.41,-0.15,0.91,0.79,0.73,0.12,R
13.047,255,120,172,255,239,-2.25,-2.82,9.34,0.01,0.02,-0.00,-3.73,1.30,8.94,0.00,0.02,0.00,-2.90,3.19,8.85,-0.06,0.00,0.00,-1.32,1.87,9.58,-0.03,0.01,-0.01,-0.39,6.93,7.20,-0.01,0.02,-0.01,0.42,-0.15,0.90,0.67,-0.24,0.37,R
13.091,255,121,174,255,239,-2.27,-2.86,9.34,0.01,0.02,-0.01,-3.72,1.36,8.96,-0.00,0.02,-0.00,-2.82,3.15,8.80,-0.03,0.00,0.00,-1.33,1.87,9.59,-0.02,0.01,0.00,-0.45,6.89,7.16,0.01,0.01,-0.01,0.42,-0.15,0.90,0.61,0.12,0.31,R
13.14,255,121,174,255,238,-2.29,-2.76,9.42,-0.01,0.02,0.00,-3.72,1.29,8.99,0.01,0.02,0.01,-2.81,3.07,8.80,-0.01,0.00,0.01,-1.32,1.84,9.58,0.01,0.01,0.00,-0.39,6.90,7.13,0.02,0.02,0.00,0.41,-0.15,0.90,0.61,0.85,0.31,R
13.19,255,122,174,255,238,-2.21,-2.89,9.26,-0.00,0.01,-0.01,-3.72,1.30,9.01,-0.00,0.01,-0.00,-2.80,3.12,8.84,-0.01,0.00,-0.00,-1.30,1.88,9.59,-0.01,0.00,-0.01,-0.35,6.84,7.18,-0.02,0.02,-0.01,0.42,-0.15,0.90,0.37,-0.67,0.12,R
13.24,255,120,173,255,240,-2.32,-2.90,9.34,0.00,0.02,0.00,-3.76,1.27,9.13,-0.01,0.03,-0.00,-2.87,3.16,8.78,-0.00,0.01,0.00,-1.38,1.86,9.58,0.01,0.01,0.01,-0.38,6.82,7.18,0.01,0.02,0.00,0.42,-0.15,0.90,0.73,0.73,-0.18,R
13.296,255,121,174,255,239,-2.21,-2.75,9.40,0.03,0.03,-0.01,-3.79,1.33,9.09,0.02,0.02,0.00,-2.83,3.17,8.74,0.01,0.00,-0.01,-1.32,1.92,9.62,0.00,0.01,-0.01,-0.34,6.90,7.14,-0.02,0.01,-0.02,0.43,-0.15,0.90,0.31,-0.18,-1.04,R
13.344,255,121,173,255,237,-2.34,-2.77,9.38,-0.04,0.03,-0.02,-3.72,1.22,8.97,-0.02,0.02,-0.01,-2.88,3.02,8.83,-0.06,-0.00,-0.01,-1.27,1.80,9.48,-0.01,0.01,-0.01,-0.44,6.93,7.25,0.01,0.00,0.00,0.40,-0.15,0.90,0.37,-1.34,-0.67,R
13.396,255,121,173,255,237,-2.38,-2.95,9.59,0.03,0.02,-0.01,-3.73,1.45,8.90,0.03,0.02,-0.02,-2.85,3.25,8.89,-0.02,0.01,-0.00,-1.29,2.00,9.62,0.00,0.02,-0.01,-0.40,6.85,7.17,-0.01,0.02,-0.01,0.42,-0.15,0.91,0.18,0.37,-0.79,R
13.445,255,121,174,255,237,-2.29,-2.86,9.27,0.01,0.03,-0.01,-3.68,1.41,9.00,-0.01,0.01,0.00,-2.87,3.07,8.83,-0.03,-0.00,0.00,-1.39,1.95,9.58,-0.00,0.01,-0.00,-0.41,6.92,7.14,0.02,0.02,-0.01,0.42,-0.16,0.91,0.92,0.61,-0.79,R
13.495,255,121,174,255,238,-2.24,-2.72,9.28,0.01,0.02,-0.02,-3.73,1.40,8.98,0.00,0.02,-0.01,-2.86,3.26,8.88,-0.05,0.00,0.00,-1.30,1.83,9.64,-0.01,0.00,-0.00,-0.34,6.90,7.18,0.01,0.01,-0.01,0.41,-0.15,0.91,0.85,-0.12,-0.12,R
13.551,255,121,174,255,239,-2.24,-2.90,9.32,0.01,0.01,0.01,-3.71,1.24,8.95,0.00,0.03,0.01,-2.83,3.10,8.82,-0.00,0.01,0.01,-1.28,2.00,9.57,0.01,0.01,0.01,-0.36,6.89,7.16,0.02,0.01,0.00,0.42,-0.15,0.90,1.28,0.98,0.18,R
13.597,255,121,174,255,238,-2.26,-2.84,9.34,-0.01,0.01,-0.01,-3.77,1.35,9.05,-0.01,0.02,0.00,-2.84,3.20,8.82,-0.02,0.00,0.01,-1.31,2.00,9.53,-0.00,0.01,-0.01,-0.42,6.89,7.19,-0.00,0.02,-0.01,0.42,-0.15,0.90,0.73,0.06,0.18,R
13.648,255,121,174,255,238,-2.28,-2.86,9.38,-0.00,0.01,-0.00,-3.70,1.34,9.12,0.01,0.02,0.01,-2.83,3.20,8.85,-0.02,0.01,0.00,-1.29,1.93,9.58,-0.01,0.01,0.01,-0.37,6.85,7.20,0.01,0.02,-0.01,0.42,-0.15,0.91,0.79,0.12,0.85,R
13.701,255,121,172,255,237,-2.39,-2.82,9.40,0.00,0.03,0.02,-3.78,1.31,9.07,0.01,0.02,0.03,-2.86,3.06,8.94,-0.02,0.01,0.01,-1.34,1.86,9.60,0.01,0.01,0.02,-0.36,6.86,7.12,0.03,0.02,0.01,0.42,-0.16,0.91,0.85,1.71,1.10,R
13.749,255,121,173,255,238,-2.29,-2.82,9.27,0.03,0.02,0.02,-3.75,1.34,8.94,-0.00,0.03,0.01,-2.83,3.28,8.77,-0.02,0.00,0.01,-1.33,1.96,9.53,0.00,0.01,0.01,-0.38,6.98,7.19,0.01,0.02,-0.01,0.43,-0.15,0.90,0.92,0.67,0.49,R
13.802,255,121,172,255,238,-2.28,-2.88,9.29,0.01,0.00,-0.01,-3.76,1.17,9.14,0.01,0.02,-0.00,-2.87,3.19,8.84,0.03,0.02,0.00,-1.32,1.91,9.55,0.02,0.02,0.00,-0.34,6.85,7.22,0.04,0.02,-0.01,0.41,-0.15,0.90,-0.55,0.24,-0.06,R
13.856,255,121,174,255,239,-2.24,-2.84,9.35,0.01,0.01,0.00,-3.80,1.32,9.10,-0.00,0.03,0.00,-2.91,3.18,8.80,0.00,0.02,0.00,-1.35,1.94,9.54,0.00,0.02,0.00,-0.35,6.89,7.09,0.01,0.02,-0.01,0.43,-0.15,0.90,0.31,0.55,0.31,R
13.904,255,120,174,255,238,-2.37,-2.76,9.45,-0.01,0.01,-0.01,-3.84,1.40,9.15,-0.02,0.02,0.00,-2.89,3.23,8.83,-0.06,0.00,0.00,-1.38,1.82,9.60,-0.00,0.01,-0.00,-0.39,6.89,7.14,-0.01,0.02,-0.01,0.43,-0.16,0.91,0.37,-0.98,0.92,R
13.959,255,121,174,255,238,-2.35,-2.96,9.28,0.01,0.01,0.01,-3.76,1.24,9.08,-0.02,0.03,0.01,-2.86,3.23,8.85,-0.02,0.01,0.01,-1.37,1.95,9.63,-0.01,0.01,0.01,-0.34,6.93,7.17,0.01,0.02,-0.01,0.43,-0.15,0.90,1.04,1.22,0.61,R
14.01,255,120,173,255,238,-2.31,-2.66,9.26,-0.02,0.02,0.00,-3.80,1.41,8.99,-0.00,0.02,0.03,-2.86,3.15,8.78,-0.05,0.00,0.01,-1.36,1.91,9.55,-0.02,0.01,0.01,-0.43,6.87,7.15,0.01,0.02,0.00,0.42,-0.15,0.90,0.98,0.18,0.85,R
14.057,255,121,174,255,240,-2.37,-2.75,9.38,0.02,0.02,0.01,-3.77,1.41,9.02,0.01,0.02,0.01,-2.86,3.19,8.75,-0.03,0.02,0.00,-1.27,1.92,9.52,-0.01,0.02,0.00,-0.36,6.90,7.21,-0.01,0.02,-0.01,0.42,-0.15,0.89,0.67,0.37,0.85,R
14.107,255,121,174,255,238,-2.22,-2.94,9.43,0.00,0.01,-0.02,-3.85,1.34,9.18,-0.01,0.02,0.01,-2.83,3.17,8.83,-0.01,0.01,0.00,-1.39,1.93,9.54,-0.01,0.01,0.00,-0.33,6.87,7.11,-0.01,0.02,-0.01,0.42,-0.15,0.91,0.43,-0.49,0.31,R
14.159,255,121,174,255,239,-2.21,-2.82,9.36,0.03,0.01,0.01,-3.76,1.40,9.13,-0.02,0.03,0.01,-2.88,3.24,8.84,-0.02,0.02,0.01,-1.36,1.96,9.60,-0.01,0.02,-0.00,-0.39,6.97,7.13,0.01,0.02,-0.01,0.44,-0.15,0.90,0.73,0.85,0.31,R
14.21,255,121,173,255,238,-2.26,-2.63,9.31,-0.01,0.02,-0.01,-3.78,1.39,8.95,-0.03,0.03,-0.00,-2.82,3.17,8.80,-0.09,-0.00,-0.00,-1.34,1.90,9.55,-0.03,0.00,-0.00,-0.38,6.81,7.23,0.00,0.02,-0.02,0.42,-0.15,0.91,0.55,-0.98,0.24,R
14.26,255,121,174,255,240,-2.29,-2.82,9.39,0.03,0.01,0.02,-3.81,1.30,9.12,0.00,0.02,0.01,-2.93,3.18,8.84,0.01,0.01,0.01,-1.29,1.96,9.53,0.01,0.02,0.00,-0.35,6.90,7.17,0.02,0.02,-0.01,0.43,-0.15,0.90,0.98,1.28,0.18,R
14.312,255,122,174,255,239,-2.26,-2.64,9.30,0.01,0.02,-0.01,-3.79,1.47,8.98,-0.03,0.02,-0.01,-2.85,3.22,8.84,-0.06,0.00,-0.01,-1.32,2.01,9.59,-0.01,0.01,-0.01,-0.41,6.90,7.14,-0.01,0.02,-0.02,0.43,-0.15,0.90,0.24,-1.16,-0.24,R
14.369,255,115,174,255,236,-2.30,-2.77,9.26,0.00,0.01,-0.01,-3.77,1.35,8.95,-0.01,0.02,0.00,-2.94,3.29,8.84,-0.04,0.00,-0.00,-1.36,2.02,9.53,-0.01,0.01,-0.00,-0.37,6.90,7.08,0.03,0.01,-0.01,0.41,-0.15,0.90,0.79,0.12,0.00,R
14.416,255,121,175,255,240,-2.25,-2.80,9.25,0.03,0.00,0.00,-3.71,1.37,8.99,0.02,0.02,0.01,-2.89,3.28,8.74,0.01,0.01,0.01,-1.31,1.98,9.51,-0.01,0.01,0.00,-0.29,6.87,7.15,-0.01,0.02,-0.01,0.44,-0.15,0.89,0.55,0.24,-0.06,R
14.464,255,121,174,255,238,-2.24,-2.75,9.36,-0.02,0.02,-0.01,-3.80,1.29,9.14,-0.03,0.02,-0.00,-2.91,3.18,8.99,-0.02,-0.01,0.01,-1.26,1.91,9.53,-0.01,0.03,-0.00,-0.37,7.04,7.21,0.02,0.01,-0.01,0.42,-0.15,0.91,0.55,-0.37,-0.18,R
14.515,255,120,173,255,238,-2.29,-2.67,9.33,0.01,0.03,-0.01,-3.75,1.46,8.98,-0.05,0.02,-0.00,-2.93,3.24,8.83,-0.07,-0.00,0.00,-1.36,1.91,9.63,-0.02,0.02,-0.01,-0.39,6.91,7.15,-0.01,0.01,-0.01,0.43,-0.15,0.90,0.73,-0.73,0.00,R
14.568,255,121,174,255,238,-2.27,-2.85,9.29,0.01,0.01,-0.01,-3.79,1.35,9.04,0.01,0.02,0.01,-2.88,3.29,8.82,-0.01,0.01,0.00,-1.27,1.81,9.50,-0.01,0.01,0.01,-0.32,6.94,7.13,0.01,0.02,-0.00,0.43,-0.15,0.90,0.79,0.24,0.00,R
14.616,255,121,173,255,239,-2.24,-2.83,9.34,0.01,0.02,-0.01,-3.76,1.25,9.10,-0.00,0.02,0.00,-2.87,3.17,8.82,0.00,0.01,0.00,-1.28,1.93,9.58,0.01,0.01,-0.00,-0.36,6.90,7.19,0.00,0.01,-0.01,0.43,-0.15,0.90,0.49,-0.06,-0.18,R
14.668,255,120,173,255,238,-2.26,-2.86,9.39,-0.01,0.02,0.00,-3.81,1.35,9.08,-0.02,0.02,0.00,-2.94,3.18,8.75,-0.01,0.01,-0.00,-1.29,1.81,9.55,0.01,0.01,0.00,-0.36,6.90,7.17,0.01,0.01,-0.01,0.43,-0.15,0.90,0.67,-0.06,0.12,R
14.72,255,121,174,255,238,-2.29,-2.70,9.32,0.01,0.02,-0.01,-3.79,1.39,9.06,-0.03,0.03,-0.01,-2.92,3.19,8.81,-0.05,0.01,-0.01,-1.35,1.93,9.58,-0.02,0.01,-0.01,-0.37,6.92,7.13,-0.01,0.02,-0.02,0.43,-0.15,0.90,0.73,-0.79,-0.18,R
14.77,255,121,173,255,238,-2.40,-2.71,9.31,-0.01,0.01,-0.01,-3.71,1.42,9.00,-0.03,0.04,0.00,-2.91,3.17,8.79,-0.08,0.01,0.00,-1.34,1.92,9.60,-0.01,0.01,-0.00,-0.34,6.89,7.17,0.00,0.02,-0.01,0.43,-0.15,0.90,0.73,-0.24,0.12,R
14.821,255,122,174,255,239,-2.29,-2.76,9.33,-0.01,0.02,-0.01,-3.77,1.30,8.98,-0.03,0.03,-0.01,-2.89,3.16,8.81,-0.03,0.00,-0.01,-1.30,1.94,9.57,-0.01,0.01,-0.01,-0.36,6.89,7.20,-0.00,0.02,-0.01,0.42,-0.15,0.90,0.79,-0.67,-0.31,R
14.873,255,121,174,255,238,-2.31,-2.74,9.36,0.01,0.01,-0.01,-3.77,1.48,9.05,-0.00,0.03,-0.00,-2.87,3.14,8.78,-0.04,0.01,0.01,-1.29,1.99,9.55,0.00,0.01,0.00,-0.32,6.88,7.16,0.00,0.02,-0.01,0.43,-0.15,0.90,0.73,0.00,-0.06,R
14.926,255,121,174,255,237,-2.19,-2.80,9.40,-0.01,0.01,0.00,-3.72,1.39,9.12,0.01,0.02,0.01,-2.94,3.21,8.87,-0.01,0.01,-0.00,-1.36,1.93,9.57,-0.01,0.01,-0.00,-0.40,6.88,7.25,0.02,0.02,-0.02,0.43,-0.15,0.90,0.43,0.06,-0.24,R
14.974,255,121,172,255,236,-2.26,-2.72,9.39,0.03,0.02,-0.01,-3.74,1.43,9.11,-0.01,0.02,-0.01,-2.87,3.25,8.83,-0.01,0.00,-0.01,-1.37,1.92,9.58,0.01,0.02,-0.00,-0.41,6.92,7.16,0.01,0.01,-0.02,0.43,-0.15,0.90,0.31,0.00,-0.49,R
15.027,255,121,172,255,237,-2.35,-2.81,9.31,-0.01,0.02,-0.01,-3.70,1.35,9.03,-0.03,0.03,-0.00,-2.90,3.20,8.75,-0.04,0.00,0.00,-1.41,2.01,9.54,-0.01,0.01,-0.01,-0.35,6.91,7.13,-0.01,0.02,-0.01,0.42,-0.15,0.90,0.18,-0.49,-0.55,R
15.076,255,121,173,255,237,-2.30,-2.80,9.36,-0.00,0.03,-0.01,-3.75,1.39,9.05,-0.01,0.03,0.01,-2.92,3.16,8.82,-0.00,0.00,0.01,-1.37,1.95,9.57,0.01,0.01,0.00,-0.35,6.85,7.15,0.01,0.02,-0.01,0.42,-0.15,0.90,0.85,0.67,-0.79,R
15.131,255,121,173,255,237,-2.27,-2.81,9.32,0.02,0.02,-0.02,-3.80,1.39,9.08,-0.03,0.03,-0.00,-2.84,3.27,8.87,-0.03,0.00,0.00,-1.36,1.95,9.56,0.01,0.01,-0.01,-0.34,6.89,7.15,0.01,0.02,-0.01,0.42,-0.15,0.90,0.73,-0.37,-0.79,R
15.184,255,121,174,255,236,-2.34,-2.76,9.29,0.02,0.02,-0.02,-3.74,1.36,8.99,-0.02,0.02,-0.01,-2.90,3.28,8.82,-0.04,-0.00,-0.00,-1.36,1.97,9.56,-0.01,0.01,-0.00,-0.36,6.90,7.13,0.00,0.02,-0.02,0.43,-0.15,0.91,0.92,-0.61,-0.79,R
15.23,255,121,172,255,237,-2.30,-2.83,9.33,-0.00,0.02,-0.01,-3.75,1.26,9.12,-0.02,0.03,0.00,-2.97,3.12,8.75,-0.01,0.00,0.00,-1.27,1.93,9.62,0.01,0.02,-0.01,-0.32,6.91,7.15,0.03,0.02,-0.01,0.42,-0.15,0.90,0.92,0.24,-0.37,R
15.281,255,120,174,255,237,-2.29,-3.28,9.49,-0.06,0.01,0.01,-3.73,1.44,8.95,0.02,0.01,0.00,-2.86,3.24,8.73,-0.01,0.01,0.00,-1.31,1.99,9.53,-0.01,0.01,0.00,-0.35,6.95,7.16,0.01,0.02,-0.02,0.42,-0.15,0.90,0.67,-0.37,-0.12,R
15.335,255,120,173,255,238,-2.30,-2.88,9.35,-0.01,0.02,-0.00,-3.77,1.41,9.15,0.02,0.01,-0.00,-2.89,3.28,8.79,-0.00,0.01,-0.00,-1.31,1.96,9.54,-0.01,0.01,-0.00,-0.38,6.84,7.13,0.00,0.02,-0.01,0.42,-0.15,0.91,0.00,-0.24,-0.12,R
15.382,255,121,174,255,238,-2.34,-2.84,9.34,-0.00,0.01,0.00,-3.74,1.33,9.00,-0.04,0.03,-0.00,-2.91,3.21,8.81,-0.04,0.00,-0.00,-1.32,1.99,9.53,-0.01,0.01,-0.01,-0.37,6.90,7.15,-0.01,0.02,-0.01,0.43,-0.15,0.90,0.12,-0.67,-0.18,R
15.433,255,121,173,255,238,-2.31,-2.82,9.37,0.00,0.01,-0.01,-3.73,1.40,8.97,-0.01,0.03,0.00,-2.90,3.30,8.79,-0.04,0.00,0.00,-1.36,1.99,9.54,-0.01,0.01,-0.01,-0.37,6.90,7.23,0.01,0.01,-0.01,0.42,-0.15,0.90,0.61,0.06,-0.12,R
15.491,255,121,172,255,238,-2.29,-2.82,9.29,-0.00,0.01,0.00,-3.73,1.36,9.00,0.01,0.02,-0.00,-2.90,3.29,8.76,-0.03,0.00,0.00,-1.33,2.05,9.57,-0.02,0.01,0.00,-0.40,6.87,7.12,0.00,0.02,-0.01,0.42,-0.15,0.90,0.67,-0.31,0.31,R
15.54,255,121,173,255,236,-2.27,-2.86,9.30,-0.01,0.02,0.00,-3.70,1.30,9.07,-0.02,0.03,0.01,-2.95,3.17,8.81,-0.03,0.02,0.00,-1.37,1.99,9.50,-0.01,0.02,0.00,-0.43,6.88,7.14,0.01,0.01,-0.01,0.42,-0.15,0.90,0.67,0.12,0.12,R
15.589,255,121,173,255,238,-2.31,-2.81,9.32,-0.00,0.01,-0.01,-3.79,1.34,8.99,0.00,0.02,0.00,-2.92,3.31,8.74,-0.03,0.00,0.00,-1.31,1.95,9.60,-0.01,0.01,-0.01,-0.48,6.94,7.16,0.01,0.02,-0.01,0.42,-0.15,0.90,0.61,-0.24,0.12,R
15.638,255,121,173,255,238,-2.32,-2.88,9.39,0.00,0.02,0.00,-3.78,1.36,9.06,0.02,0.02,0.00,-3.02,2.87,8.92,0.01,0.02,0.01,-1.36,1.94,9.51,-0.01,0.01,0.01,-0.39,6.73,7.28,0.04,0.01,-0.01,0.42,-0.15,0.90,0.55,0.49,0.00,R
15.693,255,121,172,255,237,-2.31,-2.85,9.27,-0.02,0.02,-0.01,-3.77,1.42,8.98,-0.04,0.03,-0.00,-2.89,3.23,8.75,-0.04,0.01,-0.01,-1.36,1.93,9.58,-0.02,0.02,0.00,-0.42,6.87,7.10,0.01,0.02,-0.01,0.42,-0.15,0.90,0.49,-0.79,-0.06,R
15.744,255,120,176,255,238,-2.35,-2.78,9.37,0.01,0.01,-0.00,-3.73,1.38,9.04,-0.02,0.03,0.00,-2.87,3.25,8.76,-0.03,0.01,0.00,-1.42,2.00,9.51,-0.01,0.01,-0.00,-0.39,6.90,7.13,-0.01,0.02,-0.01,0.43,-0.15,0.91,0.61,0.12,-0.24,R
15.793,255,120,172,255,237,-2.24,-2.93,9.28,-0.02,0.02,-0.01,-3.81,1.24,9.04,-0.02,0.03,-0.00,-2.91,3.17,8.82,-0.04,0.00,-0.00,-1.36,1.91,9.53,-0.01,0.01,0.00,-0.39,6.89,7.13,0.02,0.02,-0.01,0.42,-0.15,0.91,0.67,-0.12,-0.31,R
15.841,255,121,172,255,238,-2.33,-2.73,9.29,0.03,0.02,-0.01,-3.76,1.40,8.91,0.01,0.03,-0.00,-2.92,3.32,8.73,-0.01,0.01,0.00,-1.37,1.99,9.58,-0.00,0.01,-0.00,-0.43,6.93,7.14,0.01,0.01,-0.01,0.42,-0.15,0.90,0.61,0.12,-0.18,R
15.9,255,121,174,255,237,-2.25,-2.86,9.34,-0.00,0.01,-0.00,-3.74,1.39,8.99,-0.02,0.03,0.00,-2.91,3.27,8.83,-0.04,0.01,0.00,-1.37,1.97,9.50,-0.00,0.01,0.00,-0.41,6.88,7.12,0.02,0.02,-0.01,0.42,-0.15,0.90,0.67,0.24,-0.06,R
15.948,255,121,172,255,236,-2.31,-2.85,9.28,-0.01,0.01,-0.01,-3.74,1.28,9.07,-0.01,0.03,-0.00,-2.95,3.21,8.77,-0.03,0.00,0.00,-1.38,1.97,9.55,-0.01,0.01,0.01,-0.43,6.81,7.12,0.01,0.02,-0.01,0.42,-0.15,0.90,0.61,-0.24,0.06,R
15.997,255,121,172,255,237,-2.34,-2.76,9.33,0.00,0.02,0.00,-3.77,1.35,9.04,-0.02,0.03,0.00,-2.96,3.22,8.85,-0.05,0.00,0.00,-1.35,1.97,9.63,-0.01,0.01,0.00,-0.45,6.98,7.15,0.01,0.02,-0.01,0.42,-0.15,0.91,0.92,0.61,0.06,R
16.05,255,120,173,255,236,-2.32,-2.92,9.36,0.02,0.02,0.00,-3.71,1.36,8.90,0.04,0.02,0.01,-2.85,3.24,8.76,0.00,0.00,0.01,-1.36,1.98,9.59,0.01,0.01,0.00,-0.37,6.96,7.15,0.01,0.01,-0.00,0.42,-0.15,0.90,0.85,0.92,0.12,R
16.101,255,121,172,255,237,-2.43,-2.73,9.32,0.00,0.00,-0.00,-3.75,1.43,8.99,-0.03,0.03,0.00,-2.93,3.31,8.75,-0.06,-0.00,-0.00,-1.39,2.01,9.52,-0.03,0.01,0.00,-0.45,6.89,7.09,-0.01,0.02,-0.01,0.42,-0.15,0.90,0.79,-0.55,0.49,R
16.152,255,121,173,255,236,-2.29,-2.82,9.36,-0.00,0.01,0.00,-3.76,1.38,9.15,-0.01,0.02,0.00,-2.97,3.16,8.83,-0.02,0.00,0.01,-1.33,1.94,9.54,-0.01,0.02,-0.00,-0.32,6.90,7.13,0.00,0.02,-0.02,0.43,-0.15,0.91,0.49,-0.18,0.24,R
16.2,255,121,174,255,237,-2.34,-2.80,9.29,0.00,0.02,-0.00,-3.76,1.38,9.01,-0.01,0.03,0.00,-2.93,3.29,8.76,-0.04,0.00,0.00,-1.37,2.01,9.56,-0.01,0.01,-0.00,-0.39,6.94,7.15,0.01,0.02,-0.01,0.42,-0.16,0.90,0.85,0.00,0.12,R
16.252,255,121,173,255,237,-2.25,-2.80,9.31,0.00,0.02,-0.01,-3.73,1.37,8.98,-0.02,0.02,0.01,-2.90,3.25,8.75,-0.05,0.00,0.00,-1.36,2.00,9.57,-0.02,0.01,-0.01,-0.37,6.90,7.15,-0.01,0.02,-0.01,0.43,-0.15,0.90,0.85,-0.37,0.18,R
16.307,255,121,172,255,238,-2.32,-2.88,9.35,-0.03,0.02,-0.00,-3.80,1.26,9.18,-0.02,0.03,0.00,-2.84,3.13,8.84,-0.02,0.00,0.01,-1.39,1.90,9.57,0.01,0.01,0.00,-0.43,6.85,7.16,0.02,0.01,-0.00,0.42,-0.15,0.90,0.98,0.18,-0.12,R
16.355,255,120,173,255,238,-2.33,-2.80,9.33,0.02,0.01,-0.01,-3.72,1.42,9.01,-0.02,0.03,-0.00,-2.92,3.23,8.80,-0.03,0.01,-0.00,-1.36,2.02,9.53,-0.01,0.01,-0.01,-0.35,6.90,7.11,-0.02,0.02,-0.01,0.43,-0.15,0.90,0.98,-0.49,-0.06,R
16.402,255,121,174,255,239,-2.35,-2.83,9.33,-0.01,0.01,-0.00,-3.81,1.30,9.04,0.01,0.02,0.00,-2.98,3.21,8.86,-0.02,0.00,0.00,-1.39,1.93,9.57,0.01,0.01,0.01,-0.42,6.89,7.15,0.02,0.02,-0.01,0.42,-0.15,0.90,1.04,0.43,0.12,R
16.453,255,121,173,255,238,-2.28,-2.79,9.36,0.01,0.02,-0.01,-3.76,1.35,9.05,-0.03,0.02,-0.01,-2.90,3.27,8.78,-0.05,0.00,-0.00,-1.37,1.97,9.57,-0.01,0.01,-0.00,-0.38,6.90,7.11,-0.01,0.01,-0.01,0.42,-0.15,0.90,0.49,-1.04,-0.06,R
16.506,255,121,172,255,236,-2.37,-2.81,9.37,-0.00,0.01,-0.00,-3.82,1.33,9.03,-0.00,0.02,0.00,-2.92,3.23,8.82,-0.01,0.00,0.00,-1.36,1.93,9.55,-0.00,0.02,0.00,-0.37,6.91,7.17,0.01,0.02,-0.01,0.43,-0.15,0.90,0.85,0.37,-0.12,R
16.558,255,121,173,255,237,-2.24,-2.85,9.31,-0.01,0.02,-0.01,-3.79,1.26,9.13,-0.01,0.02,-0.00,-2.94,3.20,8.82,-0.02,0.00,-0.01,-1.35,1.97,9.29,-0.01,0.01,-0.00,-0.43,6.90,7.15,0.03,0.01,-0.01,0.42,-0.15,0.91,0.37,-0.55,-0.12,R
16.612,255,127,174,255,237,-2.30,-2.83,9.27,-0.00,0.01,-0.00,-3.81,1.39,9.10,0.01,0.02,0.01,-2.99,3.25,8.78,-0.02,0.01,0.00,-1.39,1.99,9.53,-0.00,0.02,0.00,-0.29,6.96,7.10,0.01,0.01,-0.01,0.43,-0.15,0.90,0.49,0.06,0.00,R
16.661,255,120,172,255,236,-2.33,-2.85,9.29,0.00,0.02,-0.00,-3.74,1.36,8.99,-0.02,0.02,0.00,-2.90,3.28,8.75,-0.04,0.01,-0.00,-1.35,2.00,9.60,-0.00,0.01,-0.00,-0.39,6.91,7.12,0.02,0.01,-0.01,0.42,-0.15,0.91,0.79,-0.12,-0.06,R
16.715,255,121,172,255,238,-2.31,-2.79,9.34,0.01,0.01,-0.00,-3.78,1.42,8.98,0.02,0.01,0.01,-2.94,3.21,8.79,-0.02,0.01,0.00,-1.33,1.99,9.58,0.01,0.01,-0.00,-0.40,6.96,7.18,-0.00,0.01,-0.00,0.42,-0.15,0.90,0.61,-0.12,0.18,R
16.762,255,121,173,255,238,-2.33,-2.86,9.32,-0.00,0.01,0.00,-3.76,1.33,9.14,0.00,0.02,0.01,-2.95,3.21,8.78,-0.01,0.00,0.00,-1.32,2.04,9.58,0.01,0.01,0.01,-0.39,6.76,7.07,-0.00,0.02,0.00,0.42,-0.15,0.90,0.92,0.37,0.18,R
16.814,255,121,172,255,238,-2.37,-2.86,9.38,0.00,0.01,-0.00,-3.83,1.33,9.17,0.01,0.02,0.01,-2.98,3.25,8.80,-0.01,0.01,0.00,-1.34,1.91,9.48,0.01,0.01,0.00,-0.34,6.88,7.14,0.01,0.02,-0.00,0.42,-0.15,0.90,0.61,-0.06,0.43,R
16.863,255,122,174,255,238,-2.28,-2.86,9.35,0.02,0.01,0.01,-3.77,1.36,9.21,0.02,0.01,0.01,-2.91,3.28,8.83,0.01,0.02,0.00,-1.34,1.94,9.53,0.01,0.02,0.00,-0.36,6.89,7.07,0.02,0.02,-0.01,0.43,-0.15,0.91,0.43,0.37,0.55,R
16.915,255,120,173,255,237,-2.30,-2.71,9.30,0.01,0.01,-0.00,-3.79,1.53,9.00,-0.02,0.03,0.00,-3.00,3.27,8.81,-0.08,0.01,0.00,-1.36,2.03,9.56,-0.02,0.02,-0.00,-0.40,6.93,7.12,0.00,0.02,-0.01,0.43,-0.16,0.90,0.79,-0.37,0.24,R
16.97,255,121,174,255,238,-2.33,-2.85,9.32,0.01,0.01,0.00,-3.76,1.34,9.04,0.01,0.02,0.01,-2.89,3.25,8.83,-0.03,0.01,0.00,-1.35,1.98,9.55,-0.00,0.01,0.00,-0.40,6.95,7.09,0.02,0.02,-0.01,0.43,-0.15,0.91,0.67,0.49,0.12,R
17.018,255,122,174,255,236,-2.30,-2.87,9.32,0.01,0.02,0.00,-3.72,1.41,8.96,-0.01,0.03,0.01,-2.95,3.19,8.76,-0.03,0.01,0.00,-1.37,1.99,9.52,-0.00,0.01,0.00,-0.42,6.91,7.16,0.04,0.01,-0.01,0.42,-0.15,0.90,0.55,0.12,0.18,R
17.068,255,120,174,255,238,-2.36,-2.82,9.31,0.00,0.02,0.01,-3.75,1.38,9.00,0.00,0.03,0.01,-2.96,3.30,8.81,-0.03,0.00,0.00,-1.39,2.02,9.53,-0.00,0.01,-0.00,-0.36,6.93,7.12,0.01,0.01,-0.01,0.43,-0.15,0.90,0.61,0.18,0.31,R
17.119,255,121,174,255,238,-2.25,-2.83,9.37,0.00,0.01,-0.01,-3.73,1.40,9.01,-0.01,0.03,0.00,-2.90,3.21,8.77,-0.04,0.01,0.00,-1.41,2.01,9.58,0.00,0.02,0.00,-0.41,6.93,7.09,0.00,0.01,-0.02,0.42,-0.15,0.90,0.55,-0.37,0.12,R
17.171,255,120,172,255,237,-2.36,-2.79,9.35,0.00,0.01,0.00,-3.73,1.31,9.05,-0.01,0.03,-0.00,-2.91,3.19,8.76,-0.01,0.01,0.00,-1.42,2.01,9.47,-0.01,0.00,-0.00,-0.42,6.95,7.18,0.01,0.02,-0.00,0.42,-0.15,0.90,0.79,0.00,0.00,R
17.221,255,120,172,255,236,-2.31,-2.85,9.39,0.00,0.01,-0.01,-3.71,1.36,9.10,0.03,0.02,0.01,-2.89,3.25,8.73,0.01,0.01,-0.00,-1.36,2.04,9.50,0.00,0.01,0.00,-0.37,6.97,7.17,0.00,0.02,-0.00,0.41,-0.14,0.90,0.24,0.00,0.18,R
17.276,255,120,173,255,238,-2.32,-2.81,9.35,-0.01,0.02,-0.01,-3.76,1.49,8.95,0.01,0.02,0.01,-3.02,3.30,8.75,-0.02,0.01,0.01,-1.41,2.04,9.57,-0.00,0.01,0.00,-0.39,6.92,7.13,0.00,0.02,-0.00,0.42,-0.15,0.90,0.85,0.06,0.24,R
17.327,255,121,173,255,237,-2.33,-2.74,9.32,-0.01,0.02,-0.00,-3.66,1.44,8.94,-0.01,0.03,0.01,-2.87,3.22,8.77,-0.04,-0.00,0.00,-1.35,1.97,9.62,-0.00,0.01,0.00,-0.37,6.86,7.11,0.01,0.02,0.00,0.43,-0.15,0.90,1.28,0.43,0.18,R
17.378,255,121,174,255,239,-2.32,-2.96,9.36,-0.01,0.02,0.01,-3.69,1.36,9.03,-0.02,0.03,0.01,-2.95,3.20,8.81,-0.04,0.01,0.01,-1.36,1.93,9.53,-0.00,0.01,0.00,-0.40,6.88,7.16,0.01,0.02,-0.01,0.42,-0.15,0.90,0.73,0.18,0.24,R
17.423,255,121,173,255,238,-2.28,-2.76,9.27,-0.01,0.01,-0.00,-3.72,1.36,9.00,-0.00,0.02,0.01,-2.94,3.27,8.73,-0.03,0.00,0.00,-1.38,1.98,9.51,-0.02,0.01,0.00,-0.38,6.90,7.16,0.01,0.02,-0.01,0.42,-0.15,0.90,0.98,-0.18,0.37,R
17.474,255,120,173,255,238,-2.30,-2.79,9.38,0.00,0.02,0.01,-3.73,1.41,9.04,0.01,0.03,0.01,-2.95,3.25,8.77,-0.02,0.01,0.00,-1.36,2.02,9.57,-0.01,0.01,0.01,-0.38,6.92,7.13,0.00,0.02,-0.01,0.42,-0.15,0.90,0.79,0.31,0.43,R
17.524,255,121,172,255,238,-2.30,-2.78,9.36,-0.01,0.02,-0.00,-3.75,1.38,9.10,0.00,0.01,0.00,-3.01,3.24,8.72,-0.01,0.01,-0.01,-1.34,2.05,9.54,0.01,0.01,-0.00,-0.40,6.86,7.09,0.01,0.01,-0.01,0.42,-0.15,0.90,0.49,0.06,0.18,R
17.576,255,121,172,255,237,-2.35,-2.79,9.37,0.01,0.01,0.00,-3.76,1.45,9.12,-0.02,0.02,0.01,-2.93,3.19,8.77,-0.03,0.01,0.00,-1.36,2.04,9.55,-0.01,0.02,-0.01,-0.41,6.86,7.15,-0.01,0.02,-0.01,0.43,-0.15,0.90,0.55,-0.31,0.43,R
17.627,255,121,173,255,238,-2.31,-2.85,9.36,0.00,0.01,-0.00,-3.70,1.42,9.03,-0.01,0.02,0.00,-2.97,3.23,8.80,-0.03,0.01,0.00,-1.40,2.00,9.57,-0.00,0.02,0.00,-0.40,6.93,7.11,0.01,0.02,-0.01,0.42,-0.15,0.90,0.73,0.37,0.06,R
17.678,255,121,173,255,236,-2.30,-2.77,9.29,0.00,0.01,-0.00,-3.74,1.52,8.99,-0.00,0.02,0.00,-2.92,3.32,8.74,-0.06,0.00,0.00,-1.38,1.97,9.52,-0.03,0.01,-0.01,-0.36,6.90,7.13,-0.01,0.02,-0.02,0.43,-0.15,0.90,0.67,-0.73,0.24,R
17.729,255,121,174,255,238,-2.27,-2.85,9.28,-0.01,0.02,0.00,-3.74,1.47,8.94,0.02,0.02,0.01,-2.94,3.25,8.76,-0.03,0.00,0.00,-1.36,1.97,9.55,-0.01,0.01,-0.01,-0.38,6.92,7.13,0.00,0.02,-0.01,0.43,-0.15,0.90,0.85,0.12,0.18,R
17.779,255,121,172,255,238,-2.36,-2.83,9.35,0.01,0.02,-0.01,-3.79,1.34,9.08,-0.01,0.02,-0.00,-2.94,3.22,8.77,-0.02,0.01,0.00,-1.40,1.93,9.54,-0.01,0.01,-0.00,-0.36,6.93,7.17,0.00,0.02,-0.01,0.42,-0.15,0.90,0.67,-0.49,0.00,R
17.83,255,121,174,255,237,-2.30,-2.84,9.33,-0.00,0.01,0.00,-3.74,1.40,9.00,-0.01,0.02,0.00,-2.88,3.28,8.77,-0.02,0.01,0.01,-1.38,1.94,9.53,0.00,0.01,-0.00,-0.38,6.91,7.15,0.00,0.02,-0.01,0.43,-0.15,0.90,0.73,0.12,0.00,R
17.885,255,120,174,255,230,-2.34,-2.83,9.28,0.00,0.02,-0.01,-3.74,1.42,9.03,-0.02,0.02,-0.00,-2.91,3.10,8.83,-0.06,-0.01,0.00,-1.33,1.96,9.55,-0.01,0.01,0.00,-0.32,6.86,7.15,0.00,0.02,-0.01,0.43,-0.15,0.91,0.61,-0.24,-0.18,R
17.932,255,122,174,255,237,-2.26,-2.94,9.30,-0.01,0.02,-0.01,-3.72,1.34,9.04,-0.01,0.02,0.00,-2.90,3.19,8.80,-0.03,0.00,0.00,-1.26,1.89,9.28,-0.02,0.02,-0.00,-0.23,6.79,6.94,-0.01,0.01,-0.01,0.42,-0.15,0.90,0.43,-0.24,-0.24,R
17.984,255,121,174,255,238,-2.34,-2.79,9.33,0.02,0.02,-0.01,-3.74,1.47,9.03,-0.01,0.03,-0.00,-2.98,3.17,8.78,-0.04,0.01,-0.00,-1.39,1.92,9.54,-0.01,0.01,-0.01,-0.42,6.95,7.08,-0.00,0.01,-0.00,0.42,-0.15,0.90,0.55,-0.24,-0.37,R
18.035,255,121,173,255,238,-2.34,-2.77,9.35,-0.00,0.02,-0.01,-3.74,1.02,9.08,-0.10,0.02,-0.01,-2.92,3.31,8.94,0.02,0.01,0.00,-1.36,1.93,9.66,0.04,0.00,-0.01,-0.39,6.64,7.25,0.02,0.02,-0.02,0.42,-0.15,0.90,0.37,0.00,0.06,R
18.086,255,121,173,255,239,-2.37,-2.86,9.28,-0.02,0.01,-0.00,-3.75,1.34,9.05,-0.00,0.02,0.00,-2.96,3.20,8.74,-0.02,0.02,0.00,-1.46,2.01,9.60,0.02,0.01,-0.00,-0.38,6.94,7.15,0.00,0.02,-0.01,0.42,-0.15,0.90,0.67,-0.12,-0.12,R
18.137,255,121,174,255,238,-2.30,-2.79,9.33,-0.01,0.01,-0.01,-3.75,1.50,9.01,-0.04,0.03,-0.02,-2.84,3.06,8.74,-0.07,0.02,-0.00,-1.36,1.69,9.26,-0.01,0.01,0.00,-0.39,6.69,7.18,-0.06,0.03,-0.02,0.42,-0.15,0.90,-0.12,-1.22,0.18,R
18.189,255,120,173,255,240,-2.27,-2.88,9.36,-0.02,0.01,-0.01,-3.75,1.39,9.12,-0.00,0.02,0.00,-2.94,3.23,8.75,-0.01,0.02,-0.00,-1.37,2.01,9.50,0.01,0.01,0.00,-0.37,6.88,7.10,0.01,0.02,-0.01,0.42,-0.15,0.90,0.61,-0.18,0.06,R
18.24,255,120,171,255,238,-2.33,-2.82,9.34,0.00,0.02,-0.01,-3.70,1.48,8.92,0.01,0.02,0.00,-2.99,3.25,8.77,-0.04,0.00,0.01,-1.43,1.97,9.60,-0.01,0.00,-0.00,-0.34,6.90,7.17,-0.01,0.02,-0.00,0.43,-0.15,0.90,0.79,-0.31,-0.12,R
18.289,255,121,172,255,238,-2.32,-2.90,9.36,-0.01,0.01,-0.00,-3.70,1.43,8.99,-0.00,0.01,0.00,-2.95,3.21,8.74,-0.03,0.00,-0.00,-1.34,1.98,9.58,-0.01,0.01,-0.01,-0.37,6.83,7.13,-0.02,0.02,-0.01,0.42,-0.15,0.90,0.61,-0.43,0.00,R
18.346,255,121,172,255,238,-2.36,-2.77,9.33,0.01,0.02,-0.00,-3.72,1.41,9.02,-0.00,0.02,0.00,-2.99,3.24,8.72,-0.03,0.00,0.01,-1.35,1.94,9.53,-0.00,0.01,0.00,-0.36,6.84,7.13,0.01,0.02,-0.01,0.42,-0.15,0.90,0.61,0.31,-0.06,R
18.396,255,122,172,255,238,-2.33,-2.81,9.38,-0.00,0.01,-0.01,-3.79,1.29,9.14,-0.04,0.03,-0.01,-2.93,3.23,8.84,-0.04,0.00,0.00,-1.33,1.95,9.61,-0.01,0.01,-0.00,-0.35,6.93,7.18,0.01,0.03,-0.01,0.42,-0.15,0.91,0.49,-0.37,0.12,R
18.442,255,122,172,255,238,-2.29,-2.85,9.34,0.03,0.01,-0.01,-3.75,1.47,9.07,-0.00,0.02,-0.00,-2.98,3.22,8.76,-0.01,0.02,0.00,-1.38,2.02,9.56,-0.00,0.02,-0.00,-0.42,6.87,7.13,0.01,0.02,-0.02,0.43,-0.15,0.90,0.61,0.24,-0.12,R
18.497,255,121,172,255,239,-2.37,-2.82,9.33,0.00,0.01,-0.00,-3.80,1.37,9.04,-0.01,0.03,0.00,-2.99,3.17,8.81,-0.04,0.01,0.01,-1.37,1.95,9.60,-0.02,0.01,0.00,-0.41,6.93,7.17,0.02,0.02,0.00,0.42,-0.15,0.91,0.98,0.12,0.00,R
18.544,255,121,172,255,238,-2.32,-2.75,9.38,0.01,0.01,0.01,-3.73,1.28,9.14,0.00,0.03,0.02,-2.87,3.13,8.81,-0.02,0.02,0.01,-1.29,1.88,9.50,0.01,0.01,0.00,-0.38,6.89,7.13,0.02,0.02,-0.00,0.42,-0.15,0.90,0.61,0.67,0.61,R
18.6,255,120,172,255,237,-2.33,-2.80,9.39,0.00,0.01,-0.00,-3.77,1.43,9.04,-0.03,0.03,0.01,-2.97,3.11,8.79,-0.06,0.01,0.00,-1.40,2.07,9.55,-0.00,0.01,-0.00,-0.42,6.84,7.21,0.01,0.02,-0.01,0.42,-0.15,0.90,0.79,-0.24,0.43,R
18.65,255,121,173,255,239,-2.32,-2.86,9.38,0.01,0.01,-0.00,-3.71,1.42,9.07,-0.01,0.02,0.00,-2.92,3.23,8.76,-0.02,0.00,-0.00,-1.30,2.00,9.57,-0.00,0.02,0.00,-0.42,6.85,7.22,0.01,0.02,-0.02,0.43,-0.15,0.90,0.37,-0.12,0.31,R
18.697,255,121,171,255,237,-2.36,-2.81,9.30,-0.01,0.01,0.01,-3.82,1.35,9.06,-0.07,0.04,0.00,-3.04,3.19,8.83,-0.07,-0.00,0.01,-1.39,1.94,9.55,-0.02,0.02,0.01,-0.41,6.93,7.13,0.03,0.02,-0.01,0.42,-0.15,0.91,0.85,0.00,0.24,R
18.752,255,120,172,255,238,-2.29,-2.82,9.34,0.03,0.01,-0.01,-3.73,1.43,9.02,-0.05,0.04,0.01,-2.94,3.30,8.78,-0.04,-0.00,0.01,-1.38,2.07,9.61,-0.01,0.01,-0.01,-0.38,6.90,7.16,-0.01,0.02,-0.01,0.44,-0.15,0.90,0.43,0.18,0.00,R
18.805,255,122,172,255,238,-2.35,-2.87,9.31,-0.00,0.01,0.00,-3.70,1.35,8.93,-0.01,0.03,0.01,-2.94,3.19,8.71,-0.04,0.00,0.01,-1.36,1.99,9.50,0.01,0.01,0.01,-0.44,6.91,7.14,0.04,0.01,0.00,0.42,-0.15,0.90,1.22,1.34,0.24,R
18.851,255,122,172,255,237,-2.28,-2.81,9.31,0.02,0.01,-0.00,-3.78,1.50,9.03,-0.07,0.04,-0.01,-3.00,3.24,8.78,-0.06,-0.00,0.00,-1.36,1.97,9.60,-0.03,0.01,-0.01,-0.43,6.90,7.17,-0.02,0.02,-0.02,0.43,-0.15,0.90,0.24,-0.92,0.49,R
18.901,255,120,172,255,238,-2.40,-2.80,9.35,0.01,0.01,0.00,-3.83,1.41,9.09,-0.02,0.03,0.01,-3.01,3.10,8.81,-0.03,0.01,0.01,-1.39,2.02,9.49,0.01,0.02,0.01,-0.45,6.85,7.14,0.03,0.02,-0.00,0.42,-0.15,0.90,0.98,1.22,0.43,R
18.955,255,121,172,255,239,-2.31,-2.75,9.29,0.02,0.00,0.00,-3.75,1.43,8.95,-0.01,0.02,0.01,-3.03,3.19,8.78,-0.03,-0.00,0.00,-1.42,2.00,9.54,-0.02,0.00,-0.01,-0.33,6.91,7.20,-0.02,0.02,-0.01,0.44,-0.15,0.90,0.43,-0.49,0.00,R
19.003,255,122,172,255,239,-2.28,-2.89,9.40,0.01,-0.01,0.01,-3.71,1.30,9.07,-0.01,0.02,0.00,-2.94,3.21,8.80,-0.01,0.00,0.00,-1.39,2.03,9.53,0.00,0.01,0.01,-0.39,6.86,7.13,0.03,0.01,-0.00,0.42,-0.15,0.90,0.79,1.04,0.12,R
19.055,255,122,174,255,239,-2.91,-2.72,10.97,0.34,-0.35,0.06,-3.93,1.30,9.32,0.25,0.03,0.09,-3.07,3.17,8.72,0.19,0.07,0.05,-1.47,1.88,9.42,0.26,-0.01,0.04,-0.37,6.63,7.26,0.20,-0.02,0.09,0.37,-0.15,0.91,1.89,18.49,3.85,R
19.108,255,123,172,255,238,-2.19,-3.90,10.54,1.00,-1.18,0.03,-4.00,1.78,9.49,0.67,0.09,0.23,-2.88,3.23,8.50,0.60,0.19,0.15,-1.55,2.30,11.41,0.75,0.15,0.08,-0.24,6.68,6.70,0.56,-0.02,0.08,0.45,-0.15,0.89,0.00,35.58,6.65,R
19.159,255,121,171,255,238,-1.52,-2.15,10.43,2.07,-2.36,-0.25,-4.09,2.03,9.52,0.90,0.06,0.39,-3.27,3.92,8.83,0.97,0.28,0.25,-1.57,2.27,9.46,0.74,0.14,0.14,-0.23,7.45,6.45,0.51,0.03,0.18,0.44,-0.15,0.89,-1.28,56.76,12.51,R
19.212,255,122,171,255,238,0.34,-3.33,8.83,2.32,-2.53,-0.71,-3.99,1.86,9.27,1.23,0.03,0.49,-3.25,4.48,8.17,1.31,0.24,0.36,-1.57,2.87,9.47,1.29,0.43,0.26,-0.25,7.35,6.54,1.14,0.07,0.24,0.51,-0.14,0.86,-6.16,78.61,15.38,R
19.263,255,121,168,255,241,1.09,1.12,9.39,2.04,-1.76,-0.56,-3.57,3.38,8.20,1.24,0.09,0.54,-3.11,4.94,7.58,1.17,0.35,0.40,-1.76,3.82,8.94,1.19,0.46,0.28,-0.11,8.10,5.87,1.07,0.08,0.16,0.66,-0.12,0.77,-7.45,80.20,15.87,R
19.318,255,122,166,255,240,2.12,1.57,7.93,1.33,-1.37,-0.32,-3.49,3.75,7.91,0.90,0.12,0.46,-3.07,5.72,7.60,0.86,0.22,0.36,-1.89,4.28,9.23,1.00,0.15,0.29,-0.24,7.62,5.73,0.89,0.09,0.12,0.69,-0.10,0.73,-5.31,58.90,12.94,R
19.361,255,123,165,255,241,2.96,2.43,7.40,0.79,-0.76,-0.24,-3.13,4.18,7.77,0.55,0.04,0.24,-2.86,5.68,6.65,0.59,0.05,0.20,-1.55,4.98,7.87,0.68,0.07,0.13,0.02,8.47,5.16,0.62,0.06,0.04,0.71,-0.08,0.71,-6.47,36.68,7.87,R
19.415,255,121,165,255,241,3.24,2.59,8.18,0.62,-0.76,-0.04,-3.19,4.31,7.98,0.55,0.15,0.24,-3.17,5.89,7.32,0.44,0.20,0.15,-1.77,4.72,8.38,0.43,0.09,0.11,-0.12,8.52,5.09,0.46,0.04,0.02,0.72,-0.09,0.70,-3.54,27.65,6.47,R
19.464,255,121,163,255,240,2.25,2.55,8.24,0.20,-0.65,-0.21,-3.50,4.73,8.03,0.29,0.07,0.16,-3.06,5.98,6.92,0.28,0.07,0.12,-1.73,4.80,8.30,0.38,0.01,0.08,-0.09,8.50,4.97,0.47,0.02,0.02,0.74,-0.08,0.68,-2.01,21.48,4.15,R
19.514,255,120,155,255,241,3.32,3.45,7.74,0.00,0.33,0.03,-3.21,5.06,7.27,0.17,0.03,0.02,-2.97,6.57,6.38,0.11,0.05,0.01,-1.69,5.35,7.89,0.08,-0.00,0.00,0.03,8.86,4.55,0.12,0.01,-0.02,0.76,-0.08,0.66,0.61,3.85,0.00,R
19.567,255,120,163,255,240,3.38,3.01,8.43,0.06,-0.08,0.06,-3.59,4.80,7.87,-0.04,0.07,0.05,-3.26,6.23,7.16,-0.09,0.04,0.04,-1.77,4.96,8.21,0.03,0.01,0.00,-0.10,8.52,4.83,0.01,0.03,-0.02,0.73,-0.08,0.68,0.31,-0.37,1.28,R
19.616,255,119,162,255,239,3.33,3.13,8.34,-0.15,0.25,0.02,-3.42,4.75,7.72,-0.09,0.05,-0.04,-3.07,6.28,6.58,-0.09,0.01,-0.04,-1.71,5.21,8.00,-0.08,0.06,-0.03,-0.03,8.71,4.75,-0.09,0.05,-0.02,0.74,-0.08,0.68,1.40,-3.97,-1.22,R
19.67,255,120,162,255,241,3.31,2.35,9.26,-0.13,0.07,0.04,-3.59,4.54,7.96,-0.07,0.06,-0.02,-3.29,6.04,7.09,-0.12,0.05,-0.03,-1.79,4.87,8.35,-0.14,0.10,-0.03,-0.12,8.55,4.94,-0.10,0.06,-0.01,0.72,-0.09,0.69,0.61,-6.35,-0.67,R
19.719,255,118,161,255,239,3.47,2.84,7.79,-0.34,0.39,0.08,-3.36,4.64,7.60,-0.21,0.02,-0.08,-3.06,6.14,6.75,-0.20,-0.01,-0.07,-1.78,5.01,8.05,-0.18,0.05,-0.06,-0.05,8.58,4.85,-0.21,0.06,-0.03,0.73,-0.08,0.68,1.22,-12.27,-2.87,R
19.769,255,119,162,255,239,2.92,2.00,9.42,-0.51,0.38,0.13,-3.33,4.56,7.44,-0.50,0.06,-0.18,-3.00,6.00,6.78,-0.50,-0.01,-0.18,-1.94,4.86,8.51,-0.54,0.10,-0.14,-0.15,8.54,5.21,-0.55,0.07,-0.07,0.74,-0.09,0.70,1.83,-29.24,-4.58,R
19.82,255,119,163,255,240,2.89,2.38,8.78,-0.69,0.59,0.23,-3.57,4.21,7.92,-0.60,0.07,-0.23,-3.28,5.71,7.09,-0.62,-0.02,-0.21,-1.96,4.55,8.48,-0.65,0.11,-0.17,-0.19,8.17,5.59,-0.61,0.07,-0.09,0.68,-0.09,0.73,3.30,-34.18,-5.43,R
19.872,255,120,162,255,236,2.27,0.95,10.79,-0.73,0.53,0.24,-3.77,3.77,8.32,-0.66,0.04,-0.26,-3.34,5.60,7.26,-0.65,-0.06,-0.21,-2.00,4.23,8.71,-0.57,-0.05,-0.12,-0.16,8.27,5.61,-0.43,0.05,-0.09,0.66,-0.10,0.75,1.65,-34.61,-5.19,R
19.921,255,118,163,255,236,2.50,1.45,8.53,-0.82,0.66,0.17,-3.68,3.53,8.27,-0.66,0.01,-0.26,-3.17,5.16,7.37,-0.61,-0.09,-0.19,-1.89,4.09,8.62,-0.52,-0.05,-0.11,-0.27,8.19,5.65,-0.40,0.04,-0.08,0.64,-0.10,0.76,0.98,-34.36,-6.04,R
19.972,255,118,164,255,236,2.09,0.68,8.31,-1.27,1.33,0.24,-3.71,3.28,8.06,-0.81,0.04,-0.27,-3.19,5.15,7.54,-0.74,-0.09,-0.22,-1.87,3.93,8.92,-0.78,-0.11,-0.15,-0.22,8.06,5.98,-0.65,0.03,-0.13,0.63,-0.10,0.78,4.39,-43.52,-8.12,R
20.024,255,118,165,255,236,0.35,-0.58,10.06,-1.88,2.09,0.48,-3.78,2.85,8.54,-1.07,-0.02,-0.35,-3.28,4.74,8.34,-0.96,-0.26,-0.27,-1.86,3.34,9.00,-0.88,-0.18,-0.22,-0.29,7.66,6.24,-0.89,0.02,-0.18,0.61,-0.11,0.80,5.00,-58.84,-11.05,R
20.074,255,117,166,255,236,-0.09,-1.67,10.21,-1.56,1.41,0.27,-3.76,2.23,8.56,-1.14,-0.00,-0.31,-3.22,4.03,8.05,-0.93,-0.26,-0.24,-1.83,2.84,9.24,-0.91,-0.26,-0.21,-0.42,7.34,6.64,-0.85,-0.01,-0.17,0.51,-0.11,0.85,6.71,-56.27,-10.68,R
20.125,255,115,166,255,235,-0.97,-1.92,8.34,-1.92,2.38,0.12,-3.81,1.51,8.60,-1.13,-0.01,-0.33,-3.41,4.40,10.09,-1.04,-0.44,-0.23,-1.74,2.40,9.54,-0.95,-0.29,-0.21,-0.34,7.16,6.87,-0.97,-0.01,-0.19,0.53,-0.13,0.85,9.09,-58.65,-14.04,R
20.176,255,115,169,255,235,-3.27,-3.92,15.16,-1.17,0.96,-0.01,-4.67,1.04,10.10,-0.79,0.10,-0.35,-3.45,3.10,8.99,-0.73,-0.37,-0.19,-1.87,1.68,9.54,-0.57,-0.14,-0.17,-0.62,6.36,7.47,-0.49,-0.03,-0.15,0.25,-0.16,0.96,2.87,-47.18,-4.03,R
20.227,255,116,171,255,236,-2.09,-3.35,10.01,0.09,-0.00,-0.04,-3.57,0.23,7.79,-0.05,0.01,-0.11,-2.93,3.16,8.76,-0.08,-0.10,0.05,-1.51,1.99,9.62,-0.08,-0.06,0.06,-0.46,6.82,7.34,0.04,-0.01,0.05,0.43,-0.14,0.89,5.13,-1.04,-3.05,R
20.278,255,117,171,255,236,-1.75,-2.73,9.50,-0.03,0.04,0.01,-4.07,0.91,9.07,0.00,-0.03,0.01,-2.92,3.15,8.64,-0.04,-0.03,-0.00,-1.60,1.95,9.51,-0.05,-0.02,-0.01,-0.53,6.72,7.29,-0.01,0.00,-0.01,0.43,-0.15,0.89,0.43,-1.46,0.24,R
20.329,255,117,172,255,236,-1.81,-2.85,9.47,0.01,-0.00,0.01,-4.09,0.75,9.40,-0.02,0.02,0.04,-2.94,3.17,8.76,0.04,0.00,0.02,-1.54,1.94,9.52,0.02,0.01,0.00,-0.51,6.73,7.25,0.04,0.01,-0.02,0.45,-0.15,0.90,0.67,1.28,0.12,R
20.38,255,117,172,255,238,-1.80,-2.77,9.44,-0.01,0.02,-0.01,-3.97,0.79,9.03,-0.00,0.05,-0.02,-2.93,3.06,8.89,-0.05,-0.00,-0.01,-1.57,1.92,9.54,-0.02,0.00,-0.01,-0.52,6.78,7.28,-0.00,0.01,-0.01,0.43,-0.15,0.91,0.55,-1.28,0.06,R
20.431,255,117,172,255,236,-1.80,-2.73,9.48,-0.01,0.00,0.01,-4.11,0.74,9.15,-0.02,0.06,0.01,-2.91,3.09,8.87,-0.02,0.03,0.01,-1.55,1.92,9.53,0.02,0.01,0.01,-0.50,6.78,7.30,0.05,0.01,0.00,0.43,-0.15,0.90,0.92,2.14,0.18,R
20.483,255,116,172,255,235,-1.71,-2.64,9.35,0.04,0.01,0.00,-3.97,0.94,8.90,0.01,0.05,-0.01,-2.84,3.17,8.73,-0.05,0.02,-0.01,-1.59,2.00,9.49,-0.02,-0.00,-0.01,-0.60,6.80,7.34,-0.02,0.02,-0.02,0.44,-0.15,0.89,0.43,-0.92,0.24,R
20.533,255,118,179,255,237,-1.79,-2.73,9.53,0.01,0.03,-0.01,-4.06,0.89,9.17,-0.01,0.06,0.02,-2.90,3.07,8.90,-0.04,0.02,0.00,-1.53,1.89,9.52,0.00,0.01,0.00,-0.45,6.75,7.32,0.02,0.02,-0.00,0.42,-0.14,0.90,0.37,1.22,0.37,R
20.583,255,116,172,255,237,-1.81,-2.82,9.43,0.06,0.02,0.01,-4.09,0.88,9.01,-0.05,0.09,0.05,-2.97,3.09,8.79,-0.01,0.04,0.01,-1.59,2.03,9.51,0.01,0.02,0.01,-0.57,6.83,7.22,0.04,0.02,-0.00,0.44,-0.15,0.90,0.43,1.77,0.24,R
20.636,255,117,172,255,236,-1.78,-2.71,9.34,0.00,0.01,-0.00,-4.05,0.85,8.77,-0.08,0.11,0.04,-2.93,3.17,8.81,-0.11,-0.01,-0.01,-1.56,1.97,9.55,-0.04,0.01,-0.00,-0.53,6.75,7.27,0.01,0.02,-0.02,0.44,-0.15,0.90,0.98,-0.73,0.18,R
20.688,255,118,173,255,238,-1.79,-2.83,9.48,0.00,0.03,-0.01,-4.11,0.65,9.05,-0.04,0.08,0.06,-2.91,2.97,8.94,-0.02,0.02,0.00,-1.50,1.93,9.52,0.02,0.02,0.01,-0.47,6.74,7.21,0.05,0.02,-0.01,0.43,-0.14,0.90,0.43,1.28,0.06,R
20.739,255,116,172,255,235,-1.87,-2.68,9.41,-0.02,0.04,0.01,-4.22,0.70,8.92,-0.05,0.08,0.00,-2.98,3.05,8.87,-0.08,0.01,0.01,-1.60,1.98,9.57,-0.01,0.01,0.01,-0.51,6.83,7.25,0.03,0.02,-0.01,0.43,-0.15,0.89,1.10,0.00,0.37,R
20.788,255,117,171,255,235,-1.78,-2.71,9.47,0.02,0.02,0.00,-4.19,0.92,8.92,-0.11,0.08,0.01,-3.01,3.10,8.90,-0.05,0.02,0.00,-1.58,1.91,9.61,-0.01,0.02,-0.00,-0.50,6.76,7.29,0.00,0.03,-0.01,0.44,-0.15,0.90,0.43,0.24,0.06,R
20.84,255,117,172,255,236,-1.90,-2.68,9.50,-0.02,0.03,-0.00,-4.19,0.78,8.93,-0.19,0.06,0.02,-2.94,3.10,8.83,-0.05,-0.01,0.00,-1.58,1.91,9.56,-0.03,0.01,0.00,-0.53,6.84,7.17,0.02,0.02,-0.01,0.43,-0.15,0.90,0.67,-0.55,0.12,R
20.891,255,117,172,255,236,-1.79,-2.74,9.36,0.04,0.03,0.01,-4.20,0.68,8.87,-0.12,0.05,0.03,-2.96,3.06,8.75,-0.03,-0.01,0.01,-1.60,2.02,9.52,-0.01,0.01,0.00,-0.55,6.91,7.23,0.02,0.01,-0.01,0.45,-0.15,0.89,0.73,0.98,0.00,R
20.941,255,118,173,255,237,-1.92,-2.68,9.53,-0.01,0.02,-0.01,-4.33,0.61,9.01,-0.10,0.04,0.00,-2.92,3.01,8.90,-0.05,0.01,-0.00,-1.56,1.87,9.59,-0.02,0.02,-0.00,-0.47,6.80,7.21,-0.00,0.02,-0.01,0.43,-0.14,0.90,0.24,-1.04,0.12,R
20.993,255,117,172,255,235,-1.81,-2.77,9.47,0.01,0.05,0.00,-4.24,0.59,8.90,-0.05,0.05,0.02,-2.88,3.06,8.85,-0.02,0.02,0.01,-1.58,1.98,9.49,0.01,0.02,0.00,-0.55,6.85,7.20,0.04,0.02,-0.01,0.44,-0.15,0.89,0.31,1.10,-0.18,R
21.044,255,118,173,255,236,-1.95,-2.87,9.40,-0.02,0.07,-0.00,-4.30,0.72,8.91,-0.03,0.04,0.01,-2.98,3.02,8.91,-0.04,0.01,0.00,-1.56,1.98,9.50,0.01,0.01,0.00,-0.53,6.90,7.24,0.02,0.01,-0.00,0.44,-0.15,0.89,0.73,0.49,0.18,R
21.093,255,117,173,255,236,-1.91,-2.66,9.55,0.01,0.04,-0.01,-4.23,0.67,8.93,-0.02,0.04,0.00,-2.93,2.97,8.86,-0.04,0.01,-0.00,-1.53,1.92,9.50,-0.01,0.01,-0.00,-0.52,6.84,7.19,-0.01,0.02,-0.01,0.44,-0.15,0.90,0.37,-0.43,0.12,R
21.145,255,117,174,255,236,-1.92,-2.77,9.46,-0.03,0.06,0.00,-4.25,0.53,8.97,-0.04,0.03,0.01,-2.96,2.98,8.85,-0.03,0.00,0.01,-1.61,1.94,9.51,-0.00,0.01,0.00,-0.52,6.80,7.20,0.01,0.02,-0.01,0.44,-0.14,0.90,1.16,0.37,0.06,R
21.196,255,117,173,255,236,-1.87,-2.75,9.44,0.03,0.03,-0.01,-4.26,0.61,8.91,0.00,0.03,0.00,-2.94,3.04,8.83,-0.04,0.01,-0.00,-1.58,1.90,9.57,0.00,0.01,-0.00,-0.42,6.82,7.22,-0.00,0.01,-0.01,0.44,-0.15,0.90,0.61,-0.24,-0.12,R
21.248,255,117,172,255,236,-1.94,-2.83,9.44,-0.02,0.03,-0.00,-4.20,0.61,8.90,-0.02,0.02,0.00,-2.96,3.00,8.86,-0.04,0.01,0.01,-1.60,1.91,9.53,-0.00,0.01,-0.01,-0.48,6.85,7.17,0.01,0.01,-0.01,0.44,-0.15,0.89,0.67,0.12,0.24,R
21.298,255,121,174,255,238,-1.87,-2.79,9.40,0.01,0.03,-0.01,-4.28,0.61,8.91,0.00,0.03,0.01,-3.01,3.01,8.83,-0.02,0.01,0.00,-1.60,1.99,9.51,0.00,0.02,0.00,-0.48,6.85,7.17,0.02,0.02,-0.01,0.44,-0.15,0.89,0.92,0.18,0.00,R
21.352,255,118,174,255,236,-1.92,-2.76,9.41,-0.03,0.02,-0.01,-4.31,0.62,8.92,-0.04,0.04,0.01,-2.97,3.01,8.86,-0.04,0.01,0.00,-1.61,1.94,9.46,-0.01,0.02,0.01,-0.48,6.84,7.19,0.00,0.02,-0.01,0.44,-0.15,0.90,0.85,-0.06,0.31,R
21.401,255,118,173,255,237,-1.92,-2.73,9.39,-0.01,0.03,-0.02,-4.33,0.65,8.82,-0.01,0.04,-0.00,-3.02,3.05,8.85,-0.04,0.00,0.01,-1.58,1.86,9.56,-0.01,0.01,-0.00,-0.54,6.86,7.19,-0.00,0.02,-0.01,0.44,-0.15,0.89,1.04,-0.37,-0.06,R
21.452,255,118,173,255,236,-1.94,-2.94,9.42,-0.02,0.05,0.00,-4.31,0.54,8.84,0.01,0.04,0.02,-2.96,3.05,8.85,-0.01,0.01,0.01,-1.57,1.91,9.54,0.00,0.01,0.01,-0.54,6.85,7.19,0.02,0.01,-0.00,0.43,-0.14,0.89,0.98,0.85,0.18,R
21.501,255,117,172,255,236,-1.93,-2.82,9.42,-0.02,0.03,-0.01,-4.30,0.62,8.90,-0.02,0.03,-0.00,-2.96,3.03,8.79,-0.05,0.01,0.00,-1.61,1.96,9.53,-0.01,0.01,-0.01,-0.52,6.82,7.22,-0.00,0.02,-0.01,0.43,-0.15,0.89,0.37,-0.92,0.12,R
21.557,255,118,174,255,236,-2.02,-2.79,9.44,-0.02,0.03,-0.00,-4.30,0.35,8.89,0.18,0.02,-0.02,-2.99,2.99,8.83,-0.05,0.01,0.00,-1.54,1.94,9.52,0.00,0.02,-0.00,-0.51,6.81,7.14,0.01,0.02,-0.02,0.44,-0.15,0.90,0.31,0.31,0.37,R
21.603,255,118,173,255,236,-1.89,-2.96,9.50,-0.02,0.03,-0.00,-4.23,0.35,8.03,0.19,-0.12,-0.04,-2.98,2.98,8.84,-0.02,0.01,0.01,-1.53,1.86,9.56,0.00,0.01,-0.00,-0.39,6.84,7.19,0.04,0.01,-0.02,0.44,-0.15,0.89,0.06,0.37,-0.06,R
21.654,255,121,173,255,237,-2.14,-2.72,9.31,0.04,0.05,-0.01,-4.24,0.84,8.89,-0.03,0.06,0.03,-3.02,2.87,8.92,0.09,0.04,0.02,-1.73,1.94,9.45,0.09,0.03,0.01,-0.48,6.77,7.25,0.15,0.02,-0.01,0.43,-0.15,0.89,-0.24,2.87,-0.18,R
21.705,255,120,173,255,236,-2.02,-2.74,9.45,0.08,0.09,0.01,-4.39,0.87,9.01,0.14,0.11,0.03,-3.06,3.08,8.76,0.13,0.07,0.03,-1.67,2.04,9.58,0.09,0.03,0.03,-0.49,7.01,7.06,0.09,0.03,0.02,0.46,-0.14,0.90,-0.18,7.14,0.18,R
21.757,255,121,172,255,236,-1.99,-2.56,9.47,-0.01,0.04,-0.01,-4.29,0.97,8.87,-0.06,0.03,-0.01,-3.06,3.12,8.83,-0.08,0.01,-0.01,-1.62,2.01,9.57,-0.03,0.02,-0.00,-0.57,6.90,7.16,-0.01,0.02,-0.02,0.45,-0.15,0.90,0.31,-1.34,0.18,R
21.808,255,121,173,255,236,-2.09,-2.77,9.31,0.01,0.05,-0.00,-4.31,0.80,8.82,0.07,0.06,0.00,-3.04,3.09,8.80,0.03,0.03,0.01,-1.61,1.99,9.55,0.06,0.02,0.01,-0.47,6.89,7.05,0.05,0.02,0.02,0.44,-0.14,0.89,0.49,3.42,0.61,R
21.859,255,122,172,255,236,-2.01,-2.78,9.37,0.01,0.06,0.02,-4.32,0.90,8.80,0.02,0.05,0.01,-3.08,3.19,8.75,0.00,0.03,0.00,-1.67,2.08,9.53,0.01,0.02,0.00,-0.49,6.98,7.13,-0.00,0.02,-0.01,0.46,-0.15,0.89,0.79,0.92,0.06,R
21.91,255,123,173,255,236,-2.09,-2.79,9.47,-0.00,0.02,-0.00,-4.37,0.82,8.87,-0.01,0.03,-0.00,-3.00,3.17,8.82,-0.02,0.02,0.01,-1.57,2.05,9.51,0.02,0.01,0.00,-0.42,6.89,7.11,0.02,0.02,0.00,0.45,-0.14,0.90,0.37,1.10,0.24,R
21.961,255,123,172,255,237,-2.11,-2.78,9.32,0.00,0.03,0.01,-4.36,0.84,8.82,0.05,0.04,0.00,-3.04,3.19,8.76,-0.01,0.01,0.01,-1.61,2.08,9.54,0.01,0.01,0.00,-0.52,6.92,7.06,0.02,0.02,-0.00,0.45,-0.15,0.89,1.04,0.85,0.12,R
22.012,255,122,172,255,236,-2.15,-2.78,9.39,0.01,0.02,0.00,-4.37,0.80,8.83,-0.01,0.04,0.01,-3.04,3.22,8.81,-0.02,0.01,0.01,-1.57,2.09,9.50,0.00,0.01,0.01,-0.44,6.95,7.12,0.02,0.02,-0.00,0.45,-0.14,0.89,0.55,0.67,0.43,R
22.065,255,122,172,255,237,-2.15,-2.83,9.35,0.00,0.03,0.01,-4.35,0.94,8.90,0.01,0.04,0.00,-3.02,3.10,8.74,-0.02,0.03,0.01,-1.61,2.01,9.47,0.01,0.02,0.01,-0.43,6.73,6.90,0.04,0.03,-0.00,0.45,-0.14,0.89,0.43,1.16,0.43,R
22.114,255,122,172,255,235,-2.07,-2.70,9.34,-0.00,0.04,-0.01,-4.35,0.87,8.91,0.02,0.03,-0.01,-3.04,3.18,8.72,-0.03,0.01,0.00,-1.60,2.08,9.50,-0.01,0.01,-0.00,-0.53,7.09,7.27,0.01,0.02,-0.01,0.45,-0.14,0.89,0.67,-0.06,0.18,R
22.167,255,123,173,255,236,-2.09,-2.86,9.44,-0.03,0.04,0.01,-4.45,0.83,8.88,0.02,0.04,-0.00,-3.05,3.13,8.76,-0.01,0.01,0.01,-1.59,1.99,9.52,0.01,0.02,0.01,-0.45,7.01,7.05,0.03,0.02,-0.00,0.45,-0.14,0.89,0.24,0.55,0.06,R
22.216,255,122,172,255,237,-2.13,-2.69,9.35,0.00,0.03,-0.00,-4.35,1.02,8.78,0.02,0.04,0.00,-3.10,3.21,8.67,-0.02,0.02,0.01,-1.64,2.05,9.40,0.01,0.02,0.01,-0.57,6.96,7.11,0.01,0.02,-0.00,0.45,-0.14,0.88,0.18,0.37,0.24,R
22.267,255,121,172,255,237,-2.17,-2.70,9.40,-0.03,0.04,0.01,-4.37,0.91,8.85,0.00,0.03,0.00,-3.05,3.15,8.79,-0.02,0.02,0.01,-1.58,2.14,9.51,0.01,0.01,0.01,-0.44,6.98,7.07,0.02,0.02,-0.01,0.46,-0.14,0.89,0.24,0.55,0.18,R
22.321,255,121,172,255,236,-2.11,-2.88,9.36,-0.01,0.03,-0.01,-4.39,0.97,8.83,0.02,0.03,-0.00,-3.06,3.13,8.77,-0.02,0.01,-0.01,-1.55,2.00,9.52,-0.00,0.02,-0.00,-0.57,7.02,7.13,0.01,0.02,-0.01,0.45,-0.14,0.89,-0.06,-0.67,0.12,R
22.371,255,122,172,255,235,-2.16,-2.70,9.36,-0.00,0.05,0.00,-4.37,0.97,8.76,0.01,0.04,0.01,-3.10,3.26,8.72,0.01,0.02,0.02,-1.63,2.14,9.48,0.03,0.02,0.01,-0.49,7.06,7.03,0.05,0.02,0.00,0.46,-0.14,0.88,0.37,1.65,0.18,R
22.419,255,121,171,255,236,-2.30,-2.60,9.56,0.00,0.05,-0.02,-3.86,0.92,8.73,-0.02,0.05,0.03,-3.08,3.20,8.72,-0.01,0.02,0.00,-1.60,2.17,9.47,0.02,0.02,-0.00,-0.47,6.94,7.07,-0.00,0.01,-0.01,0.46,-0.14,0.89,0.00,-0.37,0.31,R
22.471,255,123,173,255,238,-2.29,-2.83,9.36,-0.03,0.04,-0.00,-4.43,1.01,8.85,0.03,0.04,-0.01,-3.10,3.16,8.79,-0.02,0.02,0.01,-1.58,2.15,9.49,-0.00,0.02,0.01,-0.41,7.02,6.99,0.02,0.03,-0.00,0.45,-0.14,0.89,0.00,0.31,0.24,R
22.521,255,124,172,255,237,-2.18,-2.79,9.45,-0.01,0.06,0.01,-4.34,1.02,8.82,0.06,0.03,0.00,-3.06,3.24,8.74,-0.02,0.02,0.01,-1.64,2.19,9.52,0.01,0.01,0.00,-0.49,7.01,7.05,0.01,0.02,-0.01,0.47,-0.14,0.89,0.49,0.61,0.00,R
22.572,255,123,172,255,235,-2.20,-2.81,9.26,-0.01,0.03,-0.01,-4.38,0.98,8.72,0.02,0.03,-0.02,-3.11,3.21,8.71,-0.03,0.00,0.00,-1.62,2.12,9.48,-0.01,0.01,-0.00,-0.45,6.90,7.11,0.01,0.01,-0.01,0.45,-0.14,0.89,0.49,-0.37,-0.06,R
22.624,255,123,173,255,237,-2.22,-2.83,9.43,0.00,0.03,0.00,-4.47,0.95,8.77,0.01,0.03,0.00,-3.14,3.19,8.67,-0.01,0.02,0.00,-1.65,2.10,9.46,0.02,0.01,0.00,-0.53,7.02,7.02,0.01,0.01,-0.00,0.45,-0.14,0.88,0.55,0.67,0.06,R
22.675,255,123,172,255,237,-2.19,-2.67,9.40,0.01,0.02,-0.01,-4.39,1.12,8.77,-0.00,0.02,-0.01,-3.09,3.22,8.72,-0.05,0.00,-0.00,-1.60,2.14,9.51,-0.02,0.01,-0.01,-0.49,6.93,7.07,-0.00,0.02,-0.01,0.46,-0.14,0.89,0.49,-0.79,0.18,R
22.726,255,122,172,255,235,-2.28,-2.71,9.37,0.03,0.02,-0.02,-4.43,1.02,8.80,-0.01,0.03,0.00,-3.17,3.17,8.71,-0.06,0.00,0.01,-1.62,2.09,9.48,-0.01,0.01,0.00,-0.48,6.98,7.02,-0.00,0.02,-0.00,0.46,-0.14,0.89,0.67,0.12,0.12,R
22.776,255,123,172,255,236,-2.27,-2.83,9.33,-0.01,0.02,-0.02,-4.41,1.02,8.81,-0.03,0.02,-0.00,-3.14,3.17,8.74,-0.04,0.00,-0.00,-1.61,2.10,9.49,-0.02,0.01,-0.00,-0.51,7.00,7.08,-0.01,0.02,-0.01,0.46,-0.14,0.89,0.73,-0.73,0.00,R
22.828,255,122,172,255,238,-2.23,-2.72,9.35,-0.01,0.02,-0.01,-4.38,0.96,8.75,-0.02,0.01,-0.00,-3.12,3.19,8.72,-0.06,0.00,-0.00,-1.62,2.10,9.49,-0.01,0.01,-0.00,-0.46,7.06,7.06,-0.00,0.02,-0.01,0.45,-0.14,0.89,1.10,-0.43,0.06,R
22.88,255,123,173,255,237,-2.21,-2.86,9.34,-0.01,0.01,-0.01,-4.46,0.96,8.82,-0.01,0.02,0.00,-3.14,3.15,8.75,-0.04,-0.00,0.00,-1.60,2.10,9.46,-0.01,0.01,0.00,-0.47,7.00,7.05,-0.01,0.02,-0.01,0.46,-0.14,0.89,1.10,-0.37,-0.12,R
22.93,255,123,172,255,236,-2.22,-2.76,9.32,-0.01,0.01,-0.01,-4.41,0.99,8.75,-0.04,0.01,-0.01,-3.19,3.23,8.78,-0.05,-0.01,0.00,-1.67,2.11,9.51,-0.01,0.00,-0.01,-0.50,6.94,7.01,-0.01,0.02,-0.01,0.45,-0.14,0.89,1.10,-0.73,-0.12,R
22.983,255,123,172,255,237,-2.24,-2.81,9.30,0.01,0.02,-0.01,-4.39,0.94,8.79,0.00,0.02,-0.00,-3.09,3.16,8.72,-0.03,0.00,0.00,-1.61,2.13,9.48,-0.00,0.01,-0.00,-0.46,7.06,7.03,-0.00,0.01,-0.01,0.46,-0.14,0.89,0.92,-0.24,-0.12,R
23.034,255,125,173,255,235,-2.23,-2.82,9.45,-0.00,0.01,-0.01,-4.46,0.99,8.82,-0.01,0.02,0.00,-3.08,3.20,8.81,-0.04,0.01,0.01,-1.65,2.08,9.45,-0.01,0.01,0.00,-0.45,6.98,7.02,-0.01,0.02,-0.00,0.45,-0.14,0.89,0.49,-0.24,0.37,R
23.085,255,122,172,255,236,-2.19,-2.77,9.32,0.02,0.01,-0.01,-4.40,0.99,8.74,-0.00,0.02,-0.01,-3.09,3.19,8.71,-0.03,0.01,0.00,-1.62,2.14,9.45,-0.01,0.01,0.00,-0.54,6.95,7.03,0.00,0.03,-0.01,0.46,-0.14,0.89,0.98,-0.24,0.06,R
23.135,255,123,172,255,236,-2.32,-2.75,9.41,0.01,0.01,-0.01,-4.46,1.02,8.84,-0.03,0.01,0.01,-3.17,3.23,8.78,-0.04,-0.01,0.00,-1.61,2.12,9.45,-0.02,0.01,-0.00,-0.48,6.99,7.04,-0.01,0.03,-0.01,0.46,-0.14,0.90,0.79,-0.24,0.18,R
23.187,255,122,171,255,236,-2.18,-2.87,9.26,-0.01,0.02,-0.00,-4.27,0.83,8.78,-0.01,0.02,-0.00,-3.07,3.13,8.75,-0.03,0.01,0.01,-1.63,2.09,9.49,-0.01,0.01,0.01,-0.52,6.97,6.99,0.04,0.02,-0.02,0.45,-0.14,0.88,0.79,-0.43,0.18,R
23.235,255,123,172,255,236,-2.28,-2.62,9.48,-0.01,0.02,0.00,-4.49,0.96,8.83,-0.01,0.02,0.01,-3.17,3.11,8.76,-0.04,0.00,0.00,-1.70,2.06,9.50,0.01,0.01,0.00,-0.44,7.03,7.13,0.01,0.02,0.01,0.45,-0.14,0.89,1.16,0.49,0.31,R
23.287,255,123,173,255,234,-2.17,-2.77,9.37,-0.01,0.01,0.00,-4.36,1.01,8.83,0.00,0.03,-0.00,-3.07,3.16,8.79,-0.03,0.01,-0.00,-1.62,2.02,9.43,-0.01,0.01,-0.01,-0.51,6.92,7.06,-0.01,0.02,-0.02,0.45,-0.14,0.89,0.43,-0.79,0.06,R
23.337,255,123,172,255,236,-2.33,-2.75,9.40,0.02,0.01,0.00,-4.45,1.00,8.76,-0.02,0.03,0.01,-3.20,3.15,8.71,-0.02,0.00,0.01,-1.63,2.10,9.45,0.01,0.01,0.01,-0.52,7.01,7.05,0.02,0.02,0.00,0.45,-0.15,0.89,0.92,0.73,0.12,R
23.389,255,123,172,255,237,-2.18,-2.73,9.40,-0.00,0.01,-0.00,-4.42,0.98,8.83,-0.01,0.02,-0.00,-3.06,3.18,8.77,-0.06,0.00,0.01,-1.58,2.06,9.48,-0.02,0.01,-0.00,-0.45,6.96,7.06,-0.01,0.02,-0.02,0.46,-0.14,0.89,0.61,-1.04,0.18,R
23.439,255,120,173,255,238,-2.19,-2.83,9.31,0.01,0.02,-0.01,-4.44,0.97,8.76,-0.01,0.02,-0.00,-3.10,3.14,8.76,-0.03,0.00,0.00,-1.65,2.10,9.53,-0.02,0.01,0.00,-0.51,7.03,7.02,0.01,0.03,-0.01,0.45,-0.15,0.89,1.04,0.06,0.00,R
23.49,255,123,172,255,235,-2.23,-2.77,9.32,0.01,0.03,-0.00,-4.36,1.00,8.81,-0.03,0.02,0.00,-3.14,3.14,8.73,-0.04,0.00,0.01,-1.58,2.06,9.51,-0.01,0.01,0.00,-0.50,7.01,7.13,0.01,0.02,0.00,0.46,-0.14,0.89,1.04,0.37,0.00,R
23.545,255,124,172,255,236,-2.18,-2.87,9.44,0.01,0.01,-0.01,-4.34,0.91,8.79,-0.01,0.03,-0.00,-3.07,3.14,8.82,-0.03,0.01,0.00,-1.58,2.12,9.47,0.00,0.02,-0.00,-0.60,7.08,7.19,0.03,0.02,-0.02,0.45,-0.14,0.89,0.24,-0.43,0.31,R
23.594,255,122,173,255,235,-2.21,-2.72,9.43,0.00,0.01,0.00,-4.49,0.95,8.76,0.00,0.03,0.00,-3.08,3.20,8.72,-0.03,0.02,0.00,-1.68,2.10,9.44,0.00,0.01,-0.00,-0.45,7.05,7.00,0.00,0.02,-0.01,0.46,-0.14,0.89,0.24,0.24,0.31,R
23.643,255,123,172,255,236,-2.19,-2.81,9.43,-0.03,0.02,-0.00,-4.42,0.96,8.85,-0.05,0.02,-0.00,-3.11,3.14,8.78,-0.05,0.01,-0.01,-1.62,2.04,9.49,-0.01,0.01,-0.00,-0.49,6.89,7.09,0.01,0.02,-0.02,0.45,-0.14,0.90,0.31,-0.49,0.12,R
23.695,255,123,172,255,236,-2.24,-2.83,9.31,0.03,0.02,-0.00,-4.38,0.98,8.81,0.02,0.03,0.01,-3.17,3.21,8.67,-0.01,0.01,0.01,-1.66,2.12,9.47,0.01,0.01,0.00,-0.53,6.99,6.98,0.02,0.02,-0.01,0.45,-0.14,0.88,0.61,0.85,-0.24,R
23.746,255,123,172,255,236,-2.26,-2.76,9.39,-0.00,0.01,0.00,-4.53,1.04,9.02,-0.04,0.03,0.01,-3.10,3.09,8.71,-0.02,0.01,0.00,-1.58,2.04,9.53,-0.01,0.02,-0.00,-0.45,7.06,7.00,0.01,0.02,-0.01,0.46,-0.14,0.89,0.31,-0.12,0.31,R
23.797,255,123,172,255,235,-2.17,-2.81,9.39,-0.02,0.02,-0.01,-4.47,0.94,8.83,-0.04,0.02,-0.01,-3.12,3.14,8.71,-0.06,0.01,-0.01,-1.62,2.09,9.50,-0.02,0.02,-0.01,-0.54,6.89,7.02,0.01,0.02,-0.01,0.45,-0.14,0.90,0.24,-1.22,0.06,R
23.847,255,124,171,255,235,-2.26,-2.68,9.30,-0.00,0.02,0.01,-4.49,0.95,8.77,-0.02,0.02,0.00,-3.17,3.15,8.76,-0.04,0.00,0.00,-1.66,2.15,9.52,-0.02,0.01,0.00,-0.54,7.06,7.00,0.00,0.02,-0.01,0.46,-0.14,0.89,0.61,0.00,0.06,R
23.898,255,123,173,255,236,-2.23,-2.91,9.33,-0.02,0.02,-0.01,-4.38,0.92,8.78,-0.01,0.03,-0.01,-3.14,3.10,8.81,-0.04,0.00,-0.00,-1.63,2.11,9.52,-0.01,0.01,-0.00,-0.50,6.97,7.07,-0.01,0.02,-0.01,0.45,-0.14,0.89,0.43,-0.61,-0.12,R
23.949,255,124,172,255,235,-2.29,-2.77,9.36,-0.01,0.02,0.01,-4.45,0.92,8.80,-0.03,0.02,0.00,-3.14,3.14,8.71,-0.02,0.00,-0.00,-1.63,2.10,9.47,0.01,0.01,0.00,-0.53,7.04,6.98,0.01,0.01,-0.01,0.45,-0.14,0.89,0.55,0.06,0.00,R
24.001,255,125,172,255,236,-2.23,-2.77,9.33,0.01,0.01,0.00,-4.46,0.94,8.82,-0.01,0.02,-0.00,-3.10,3.22,8.78,-0.04,0.00,0.00,-1.62,2.11,9.43,-0.01,0.01,-0.01,-0.55,7.03,7.02,-0.00,0.02,-0.02,0.46,-0.14,0.89,0.55,-0.61,0.24,R
24.052,255,123,173,255,236,-2.29,-2.85,9.27,0.01,0.02,-0.01,-4.51,0.92,8.80,-0.01,0.03,0.00,-3.15,3.17,8.72,-0.03,0.00,0.00,-1.69,2.14,9.48,-0.01,0.01,-0.00,-0.57,7.03,7.06,0.01,0.02,-0.01,0.45,-0.14,0.89,0.73,0.12,-0.12,R
24.102,255,123,172,255,235,-2.26,-2.83,9.33,-0.01,0.01,-0.01,-4.43,0.92,8.79,-0.03,0.02,-0.00,-3.16,3.15,8.74,-0.04,0.00,0.01,-1.68,2.12,9.48,-0.01,0.01,-0.00,-0.46,6.94,7.12,-0.00,0.02,-0.01,0.45,-0.14,0.89,0.79,-0.31,0.12,R
24.155,255,124,173,255,235,-2.20,-2.87,9.26,0.01,0.02,-0.01,-4.43,0.98,8.79,0.01,0.02,0.00,-3.11,3.11,8.79,-0.04,0.01,0.00,-1.66,2.08,9.48,-0.00,0.01,-0.00,-0.51,6.94,7.05,-0.00,0.02,-0.01,0.46,-0.14,0.89,0.85,-0.24,-0.06,R
24.206,255,123,172,255,236,-2.29,-2.78,9.39,-0.00,0.02,-0.01,-4.40,0.95,8.79,-0.03,0.02,0.00,-3.08,3.15,8.79,-0.03,0.01,0.00,-1.60,2.08,9.53,-0.01,0.01,0.00,-0.48,6.99,7.08,0.01,0.02,-0.01,0.45,-0.14,0.89,0.73,0.00,0.06,R
24.255,255,123,172,255,235,-2.24,-2.82,9.30,0.01,0.01,-0.00,-4.48,0.93,8.81,0.00,0.02,0.00,-3.14,3.14,8.71,-0.03,0.00,0.01,-1.63,2.06,9.48,0.01,0.01,-0.01,-0.49,6.94,7.06,-0.00,0.02,-0.01,0.45,-0.14,0.89,0.49,-0.12,0.18,R
24.307,255,122,174,255,236,-2.25,-2.85,9.34,-0.01,0.02,0.00,-4.41,0.94,8.80,-0.02,0.03,0.00,-3.12,3.12,8.71,-0.03,0.01,0.00,-1.63,2.04,9.50,-0.01,0.01,-0.00,-0.50,7.02,7.03,0.01,0.01,-0.01,0.45,-0.14,0.89,0.79,-0.12,0.12,R
24.357,255,122,174,255,236,-2.19,-2.80,9.30,0.01,0.02,-0.00,-4.48,0.98,8.77,-0.01,0.03,0.00,-3.13,3.12,8.73,-0.03,0.00,-0.00,-1.69,2.11,9.48,-0.01,0.01,-0.00,-0.48,7.02,7.07,0.00,0.02,-0.01,0.46,-0.14,0.89,0.61,-0.49,0.12,R
24.411,255,124,173,255,237,-2.32,-2.75,9.35,-0.01,0.02,-0.01,-4.45,0.95,8.75,-0.01,0.02,0.00,-3.13,3.07,8.73,-0.04,0.00,0.00,-1.62,2.08,9.45,-0.01,0.01,0.00,-0.47,6.98,7.10,0.01,0.02,-0.01,0.45,-0.14,0.89,0.73,0.00,0.00,R
24.46,255,124,173,255,236,-2.27,-2.86,9.29,0.01,0.02,-0.01,-4.42,0.90,8.75,-0.01,0.03,-0.00,-3.11,3.11,8.77,-0.03,0.01,0.00,-1.62,2.09,9.51,-0.01,0.01,-0.01,-0.47,7.01,7.07,0.01,0.02,-0.02,0.45,-0.14,0.89,0.67,-0.43,0.06,R
24.511,255,123,173,255,236,-2.22,-2.88,9.30,0.01,0.02,-0.01,-4.40,0.93,8.79,-0.00,0.03,0.00,-3.12,3.13,8.75,-0.02,0.01,-0.00,-1.65,2.11,9.43,-0.02,0.01,0.00,-0.51,6.94,7.07,0.00,0.02,-0.01,0.45,-0.14,0.89,0.67,-0.24,-0.12,R
24.562,255,123,186,255,236,-2.15,-2.88,9.28,0.01,0.02,-0.00,-4.37,0.91,8.80,0.00,0.02,0.01,-3.18,3.15,8.76,-0.03,0.00,0.00,-1.72,2.14,9.48,-0.01,0.01,0.00,-0.54,7.04,7.02,0.00,0.02,-0.01,0.46,-0.14,0.89,0.92,0.06,-0.06,R
24.612,255,124,172,255,237,-2.24,-2.83,9.33,-0.00,0.02,-0.01,-4.45,0.91,8.80,-0.01,0.02,-0.01,-3.08,3.18,8.74,-0.03,0.00,-0.00,-1.59,2.04,9.51,-0.01,0.01,-0.01,-0.52,6.95,7.08,-0.01,0.01,-0.01,0.45,-0.14,0.89,0.67,-0.49,-0.06,R
24.665,255,123,174,255,236,-2.27,-2.92,9.39,0.01,0.01,0.01,-4.45,0.95,8.82,-0.01,0.03,0.00,-3.18,3.15,8.72,-0.01,0.01,0.01,-1.69,2.02,9.50,-0.00,0.01,0.01,-0.47,6.93,6.99,0.01,0.02,-0.01,0.45,-0.14,0.89,0.73,0.49,0.06,R
24.714,255,124,173,255,236,-2.24,-2.74,9.39,-0.01,0.01,-0.01,-4.41,0.95,8.79,-0.01,0.02,0.00,-3.09,3.13,8.76,-0.04,0.00,-0.00,-1.62,2.12,9.43,-0.01,0.02,-0.01,-0.47,6.96,7.08,-0.00,0.02,-0.01,0.45,-0.14,0.89,0.49,-0.55,0.00,R
24.766,255,125,173,255,236,-2.23,-2.82,9.34,-0.00,0.01,-0.01,-4.39,0.95,8.72,-0.00,0.02,0.01,-3.07,3.06,8.71,-0.03,0.00,0.00,-1.68,2.15,9.55,-0.01,0.00,0.00,-0.57,6.98,7.24,0.01,0.03,-0.01,0.46,-0.14,0.89,0.85,-0.06,0.18,R
24.818,255,123,172,255,235,-2.24,-2.83,9.34,-0.01,0.01,-0.00,-4.53,0.89,8.83,-0.01,0.01,0.00,-3.21,3.15,8.77,-0.04,0.00,0.00,-1.68,2.14,9.54,-0.00,0.01,0.00,-0.48,6.90,7.14,-0.01,0.03,-0.00,0.46,-0.15,0.90,1.16,0.00,-0.24,R
24.868,255,123,172,255,234,-2.11,-3.01,9.26,0.00,0.02,-0.00,-4.38,0.86,8.82,-0.00,0.01,0.00,-3.09,3.09,8.78,-0.04,-0.01,0.00,-1.63,2.11,9.46,-0.01,0.01,-0.00,-0.54,7.03,7.09,0.00,0.02,-0.01,0.45,-0.14,0.89,0.92,-0.43,-0.12,R
24.919,255,124,173,255,236,-2.32,-2.73,9.37,-0.01,0.02,0.01,-4.41,0.91,8.82,-0.02,0.02,0.01,-3.18,3.06,8.74,-0.02,0.00,0.01,-1.67,2.10,9.47,0.01,0.01,0.01,-0.47,6.99,7.01,0.01,0.01,-0.00,0.45,-0.14,0.88,1.04,0.43,0.06,R
24.97,255,123,172,255,236,-2.25,-2.88,9.36,-0.01,0.02,-0.00,-4.40,0.86,8.84,-0.02,0.02,0.00,-3.06,3.08,8.77,-0.04,0.00,-0.00,-1.64,2.04,9.54,-0.01,0.01,-0.00,-0.47,6.95,7.13,0.00,0.02,-0.01,0.45,-0.14,0.89,0.37,-0.43,0.18,R
25.021,255,124,172,255,237,-2.27,-2.82,9.35,0.02,0.02,-0.01,-4.43,0.94,8.78,-0.01,0.02,0.00,-3.15,3.13,8.75,-0.02,0.01,0.00,-1.67,2.04,9.50,-0.01,0.01,-0.01,-0.45,6.90,6.96,-0.01,0.02,-0.01,0.45,-0.14,0.89,0.67,-0.31,0.06,R
25.076,255,122,173,255,236,-2.23,-2.81,9.28,0.00,0.01,-0.01,-4.44,0.96,8.80,-0.02,0.02,0.00,-3.11,3.15,8.73,-0.03,0.00,-0.00,-1.67,2.04,9.49,-0.01,0.00,-0.00,-0.47,6.97,7.03,0.00,0.01,-0.01,0.45,-0.14,0.89,0.85,-0.24,0.06,R
25.123,255,124,172,255,235,-2.25,-2.80,9.35,-0.00,0.01,-0.00,-4.41,0.85,8.83,-0.02,0.02,0.00,-3.16,3.06,8.75,-0.03,-0.00,0.00,-1.61,2.06,9.52,-0.01,0.01,0.00,-0.46,6.98,7.12,-0.00,0.02,-0.01,0.45,-0.14,0.89,0.79,-0.37,0.00,R
25.175,255,124,173,255,237,-2.17,-2.93,9.36,0.00,-0.00,0.00,-4.45,0.94,8.79,-0.00,0.02,0.01,-3.09,3.12,8.77,-0.02,0.01,0.01,-1.63,2.10,9.50,-0.00,0.01,0.01,-0.50,6.95,7.12,0.02,0.02,-0.01,0.45,-0.14,0.89,0.73,0.12,0.24,R
25.224,255,123,172,255,238,-2.21,-2.78,9.32,0.00,0.00,-0.01,-4.36,0.92,8.79,-0.01,0.02,-0.00,-3.08,3.14,8.74,-0.03,0.01,-0.00,-1.67,2.09,9.45,-0.02,0.02,0.00,-0.45,6.98,7.09,0.00,0.03,-0.01,0.45,-0.14,0.89,0.79,-0.67,0.12,R
25.279,255,124,174,255,237,-2.22,-2.88,9.36,0.00,-0.01,0.01,-4.42,0.91,8.86,0.02,0.02,0.01,-3.14,3.13,8.78,-0.01,0.01,0.01,-1.61,2.09,9.53,0.01,0.01,0.00,-0.49,7.01,7.04,0.01,0.02,-0.01,0.46,-0.14,0.89,0.92,0.43,-0.12,R
25.328,255,124,173,255,236,-2.19,-2.86,9.39,0.02,-0.01,-0.01,-4.42,0.83,8.78,-0.01,0.02,-0.01,-3.10,3.12,8.77,-0.04,-0.00,-0.01,-1.59,2.08,9.46,-0.01,0.02,-0.01,-0.50,6.90,7.05,-0.02,0.02,-0.02,0.45,-0.14,0.90,0.67,-1.59,-0.06,R
25.377,255,124,172,255,235,-2.35,-2.71,9.49,0.08,-0.17,0.05,-4.45,0.88,8.86,-0.02,0.01,0.01,-3.13,3.11,8.78,-0.02,0.00,0.01,-1.66,2.02,9.50,0.00,0.01,0.01,-0.52,6.98,7.05,0.03,0.02,0.01,0.44,-0.15,0.89,1.34,0.31,0.31,R
25.429,255,123,172,255,237,-1.93,-2.75,9.29,0.22,-0.42,0.01,-4.37,0.93,8.92,0.08,0.02,0.03,-3.13,3.12,8.76,0.04,0.02,0.01,-1.54,2.14,9.46,0.04,0.02,0.00,-0.50,7.02,7.07,0.03,0.02,-0.01,0.46,-0.14,0.89,1.10,3.36,0.49,R
25.48,255,124,173,255,236,-2.22,-2.75,10.39,0.19,-0.33,0.11,-4.48,0.91,8.91,-0.03,0.02,0.03,-3.20,2.97,8.83,-0.01,0.01,0.02,-1.66,2.03,9.43,0.04,0.02,0.02,-0.60,6.91,7.07,0.09,0.02,0.02,0.44,-0.15,0.89,2.50,2.56,1.16,R
25.53,255,123,172,255,237,-1.63,-2.22,9.21,0.47,-0.64,-0.05,-4.47,1.17,8.81,0.13,0.01,0.05,-3.08,3.32,8.66,0.10,0.05,0.04,-1.66,2.18,9.52,0.09,0.02,0.04,-0.51,7.07,6.98,0.10,0.01,0.03,0.46,-0.14,0.88,1.77,9.58,1.71,R
25.583,255,125,172,255,235,-1.15,-1.96,8.97,0.41,-0.43,-0.01,-4.36,1.21,8.73,0.19,0.03,0.07,-3.17,3.43,8.68,0.14,0.06,0.04,-1.64,2.27,9.46,0.11,0.02,0.02,-0.43,7.09,6.98,0.11,0.01,0.03,0.47,-0.14,0.88,1.46,9.64,1.53,R
25.633,255,124,173,255,236,-1.06,-2.92,10.13,0.42,-0.60,-0.02,-4.41,1.10,8.82,0.12,-0.00,0.08,-3.09,3.23,8.83,0.09,0.05,0.04,-1.62,2.13,9.46,0.14,0.03,0.03,-0.48,6.95,7.02,0.17,-0.00,0.04,0.45,-0.14,0.89,0.67,10.56,2.56,R
25.683,255,125,175,255,237,-0.89,-2.58,10.78,0.94,-1.11,-0.08,-4.51,0.92,9.07,0.44,0.04,0.20,-3.24,3.26,8.80,0.42,0.16,0.11,-1.64,2.24,9.41,0.38,0.07,0.09,-0.40,7.21,6.91,0.43,-0.00,0.10,0.47,-0.15,0.89,1.40,28.81,4.21,R
25.734,255,123,172,255,236,-0.34,-1.27,9.51,0.90,-0.74,-0.22,-4.13,1.76,8.47,0.50,-0.01,0.22,-3.24,3.92,8.38,0.42,0.16,0.12,-1.71,2.74,9.31,0.32,0.07,0.10,-0.35,7.39,6.69,0.33,0.03,0.09,0.53,-0.14,0.84,1.53,26.43,3.72,R
25.785,255,123,172,255,236,0.38,-0.62,9.66,0.98,-0.93,-0.33,-4.32,1.84,8.73,0.31,0.03,0.15,-3.30,3.80,8.44,0.24,0.11,0.08,-1.65,2.85,9.37,0.22,0.05,0.05,-0.34,7.40,6.57,0.23,0.01,0.04,0.54,-0.14,0.84,0.73,19.41,3.91,R
25.837,255,124,172,255,236,0.46,-1.02,10.49,0.94,-0.85,-0.22,-4.22,2.00,8.51,0.33,0.03,0.17,-3.31,3.85,8.40,0.24,0.11,0.09,-1.70,2.78,9.27,0.25,0.06,0.06,-0.33,7.48,6.49,0.26,0.02,0.06,0.54,-0.14,0.84,1.28,20.45,3.97,R
25.888,255,125,172,255,237,0.58,-0.09,10.59,0.79,-0.65,-0.16,-4.15,2.43,8.35,0.28,-0.03,0.15,-3.29,4.20,8.01,0.22,0.06,0.09,-1.70,2.93,9.21,0.23,0.05,0.06,-0.26,7.62,6.37,0.24,0.02,0.04,0.57,-0.14,0.82,1.04,18.80,3.48,R
25.942,255,125,171,255,237,1.30,1.06,9.03,0.70,-0.63,-0.24,-4.24,2.50,8.45,0.24,-0.01,0.13,-3.28,4.19,7.99,0.19,0.04,0.08,-1.73,3.17,9.16,0.21,0.07,0.04,-0.27,7.66,6.26,0.19,0.02,0.03,0.58,-0.13,0.81,0.43,14.83,2.81,R
25.989,255,126,172,255,236,1.67,1.01,9.32,0.50,-0.37,-0.15,-4.21,2.43,8.61,0.17,0.01,0.12,-3.35,4.31,8.24,0.12,0.05,0.09,-1.72,3.06,9.19,0.19,0.05,0.04,-0.27,7.74,6.28,0.20,0.02,0.03,0.59,-0.13,0.81,1.71,12.27,2.93,R
26.04,255,124,171,255,238,1.72,1.15,9.76,0.41,-0.39,-0.14,-4.24,2.63,8.56,0.16,-0.02,0.10,-3.33,4.41,8.08,0.17,0.05,0.06,-1.78,3.30,9.12,0.28,0.07,0.03,-0.26,7.60,6.28,0.24,0.02,-0.00,0.61,-0.13,0.82,0.61,12.57,2.26,R
26.091,255,123,171,255,238,2.21,2.15,8.04,0.19,-0.05,-0.13,-4.38,2.87,8.91,0.04,-0.03,0.01,-3.54,4.69,8.48,0.13,0.09,0.02,-1.80,3.61,9.22,0.41,0.14,-0.03,-0.33,7.86,6.22,0.38,-0.10,-0.16,0.64,-0.14,0.80,-0.18,5.55,0.98,R
26.144,255,124,168,255,239,2.02,0.62,9.54,-0.40,0.17,0.04,-3.96,2.31,8.25,-0.26,-0.05,-0.07,-3.32,4.57,8.15,-0.16,0.09,-0.05,-1.89,3.87,9.21,0.12,0.11,-0.01,-0.10,7.88,5.95,0.21,-0.19,-0.29,0.60,-0.11,0.80,-6.41,-12.45,2.99,R
26.194,255,125,166,255,240,2.04,2.04,9.08,-0.28,0.11,-0.45,-3.58,1.81,8.29,-0.32,-0.09,-0.18,-3.02,3.91,7.84,-0.27,-0.14,-0.13,-1.61,3.87,9.25,-0.23,-0.11,-0.13,0.06,8.48,6.92,-0.44,-0.26,0.18,0.62,-0.09,0.81,-3.85,-15.93,-3.97,R
26.247,255,125,166,255,241,2.00,0.57,8.37,-0.94,0.61,-0.17,-3.67,1.84,8.74,-0.93,-0.09,-0.49,-3.09,4.43,8.86,-1.00,-0.42,-0.28,-1.09,3.65,9.71,-1.09,-0.57,-0.24,-0.03,8.71,6.77,-1.16,-0.41,0.12,0.58,-0.08,0.83,-5.31,-61.83,-7.45,R
26.296,255,125,169,255,243,1.28,1.51,9.51,-0.99,0.70,-0.44,-4.03,1.31,8.30,-1.05,-0.40,-0.53,-3.29,3.37,8.83,-1.04,-1.07,-0.17,-1.33,2.48,9.16,-1.42,-1.00,-0.12,0.16,6.85,6.91,-1.36,-0.48,0.22,0.51,-0.12,0.91,-1.04,-64.15,-10.86,R
26.347,255,126,172,255,244,0.71,-0.73,9.82,-1.27,1.08,-0.12,-3.79,0.30,9.05,-1.02,-0.65,-0.73,-2.72,2.66,8.40,-0.94,-0.82,-0.36,-0.95,2.51,8.85,-1.17,-0.92,-0.24,0.18,6.91,6.80,-1.13,-0.35,0.05,0.43,-0.13,0.87,1.28,-60.49,-15.87,R
26.398,255,132,176,255,246,-0.80,1.72,10.90,-1.20,1.69,-0.68,-3.69,1.18,9.04,-1.05,-0.76,-0.50,-2.55,3.54,8.35,-0.82,-1.12,-0.20,-0.70,2.26,8.86,-1.17,-0.67,-0.02,0.24,6.14,6.70,-1.16,-0.26,0.24,0.45,-0.16,0.85,7.20,-61.46,-13.61,R
26.448,255,138,178,255,248,-0.64,-1.82,10.61,-0.75,0.35,-0.05,-3.28,0.72,8.63,-0.61,-0.63,-0.21,-2.10,2.67,8.61,-0.56,-0.57,0.02,-0.90,1.25,9.07,-0.73,-0.40,0.18,0.45,5.62,6.47,-0.56,0.06,0.17,0.36,-0.14,0.87,12.76,-31.37,-5.25,R
26.5,255,146,181,255,250,-0.61,-0.93,8.29,-0.27,0.44,-0.24,-3.27,-0.24,8.56,-0.54,-0.60,-0.04,-1.85,2.26,9.11,-0.48,-0.61,0.11,-0.62,0.59,9.07,-0.63,-0.26,0.12,0.69,5.08,7.26,-0.69,-0.01,0.20,0.32,-0.16,0.88,15.69,-35.22,-4.82,R
26.551,255,151,184,255,250,-1.31,-1.27,11.26,-0.07,0.23,0.33,-3.05,-0.51,10.04,-0.29,-0.24,0.25,-1.94,0.91,10.44,-0.19,-0.45,0.28,-0.53,-0.79,10.07,-0.16,-0.14,0.17,0.43,5.58,7.70,0.05,0.05,0.05,0.26,-0.20,0.91,25.33,-10.25,-0.18,R
26.602,255,154,187,255,251,-0.68,-0.73,10.38,0.47,-0.09,0.27,-2.06,-0.07,9.34,0.31,-0.57,-0.20,-0.72,2.75,9.31,0.22,-0.51,-0.13,0.19,0.81,9.61,0.04,-0.13,-0.10,1.08,6.59,7.73,0.09,0.01,-0.12,0.36,-0.16,0.96,18.07,-1.16,-2.50,R
26.654,255,157,189,255,253,-1.00,-0.12,9.34,0.52,-0.48,-0.76,-2.06,-0.81,10.64,-0.15,-0.39,-0.22,-0.89,1.98,10.75,-0.03,-0.69,-0.14,0.51,0.67,10.29,0.01,-0.27,-0.24,1.12,6.55,7.34,0.03,-0.08,-0.07,0.37,-0.18,0.94,11.54,-7.26,-2.93,R
26.704,255,160,190,255,253,-0.15,-0.39,11.62,0.58,-0.84,-0.04,-2.03,1.12,10.24,0.22,-0.24,0.11,-0.65,3.68,9.97,0.17,-0.23,0.21,0.42,1.41,10.70,0.16,-0.25,0.21,0.93,6.75,8.79,0.16,-0.09,0.30,0.39,-0.22,0.96,5.74,15.14,12.88,R
26.754,255,162,192,255,253,-0.02,0.46,8.55,-0.01,-0.23,0.36,-1.78,-0.74,9.83,-0.13,-0.41,0.20,-0.61,1.58,9.00,-0.16,-0.41,0.24,0.09,0.13,8.66,-0.20,-0.33,0.14,0.41,4.66,6.86,-0.16,-0.08,0.20,0.31,-0.21,0.89,-4.52,-6.47,11.23,R
26.806,255,163,192,255,253,-0.12,-2.05,8.89,0.35,-0.11,0.08,-1.69,-0.42,7.75,0.13,-0.16,0.11,-0.43,1.45,6.33,0.21,-0.16,0.11,0.27,0.80,5.98,0.20,0.07,0.10,0.54,4.42,4.67,0.33,0.27,-0.05,0.25,-0.16,0.78,10.74,12.88,8.24,R
26.857,255,162,193,255,254,-0.07,1.31,8.13,0.11,0.50,-0.03,-1.36,-1.26,5.45,0.31,0.68,0.36,-0.23,-0.42,5.43,0.33,1.02,0.03,0.84,0.27,7.53,0.20,1.58,0.20,-0.92,7.45,20.93,-0.74,2.59,-1.42,0.31,-0.33,1.20,46.57,-4.09,-9.03,R
26.908,255,166,192,255,252,-1.91,-3.88,13.43,-0.53,0.69,0.24,-1.71,-3.67,8.22,0.02,0.16,0.05,-0.19,-0.98,0.82,0.63,0.25,-0.24,-0.05,1.30,11.87,-0.14,0.50,0.07,-0.12,4.74,9.07,0.19,0.28,0.00,0.19,-0.03,0.68,-18.49,12.21,10.44,R
26.961,255,166,192,255,251,-0.53,-1.97,10.20,-0.35,0.15,-0.14,-1.64,-0.42,10.85,-0.13,-0.02,-0.00,-0.92,1.70,9.70,-0.10,0.27,-0.02,-0.52,0.28,10.22,0.11,0.29,-0.02,-0.31,5.24,7.94,-0.06,0.28,0.01,0.34,-0.26,1.06,-9.95,-1.34,1.65,R
27.01,255,168,192,255,250,-0.88,-0.39,9.50,0.06,-0.07,-0.04,-1.73,0.27,9.69,0.25,-0.18,-0.03,-0.82,2.87,9.84,-0.12,0.00,-0.03,-0.32,0.47,10.10,0.01,0.18,-0.06,0.14,6.13,8.22,0.05,0.15,-0.02,0.40,-0.26,0.96,1.59,0.79,-3.36,R
27.062,255,167,194,255,248,-0.74,-1.18,9.50,-0.35,0.04,0.48,-1.58,-0.13,9.63,-0.24,-0.12,0.06,-0.80,2.09,9.60,-0.21,-0.08,0.10,-0.34,0.04,10.01,-0.15,0.11,0.06,-0.19,5.80,8.17,0.24,0.12,0.03,0.23,-0.25,0.91,11.23,-5.80,2.20,R
27.112,255,169,193,255,248,-0.90,-1.05,9.85,0.72,0.10,-0.09,-1.56,-0.14,9.54,0.09,-0.01,0.13,-1.06,2.23,9.43,0.02,-0.04,0.10,-0.65,0.38,9.79,0.04,0.05,0.05,-0.29,6.08,7.92,0.14,0.05,0.08,0.39,-0.28,0.86,13.37,14.40,2.08,R
27.164,255,169,192,255,250,-0.69,-0.48,10.09,-0.03,0.01,0.05,-1.50,-0.01,9.88,-0.01,-0.04,0.01,-0.84,2.43,9.45,-0.14,0.05,0.01,-0.61,0.55,9.81,-0.05,0.06,-0.04,0.01,5.92,8.01,-0.01,0.04,-0.03,0.38,-0.26,0.91,5.37,-4.76,-0.06,R
27.215,255,169,193,255,249,-0.95,-2.48,9.81,-0.29,0.10,0.14,-1.54,-0.05,9.82,0.04,0.01,0.03,-0.94,2.43,9.56,-0.05,0.07,0.03,-0.54,0.42,9.91,0.04,0.06,0.02,-0.05,6.11,7.95,0.13,0.02,-0.01,0.37,-0.26,0.92,0.85,4.76,-1.04,R
27.265,255,168,194,255,247,-0.99,-2.04,9.72,-0.29,0.14,0.04,-1.61,-0.13,9.73,0.04,0.04,-0.01,-0.91,2.46,9.49,-0.04,0.07,0.02,-0.57,0.48,9.86,0.01,0.04,0.01,-0.04,6.08,7.92,0.08,0.02,-0.01,0.34,-0.26,0.91,-3.42,0.85,-1.83,R
27.315,255,169,193,255,248,-1.00,-2.04,9.73,-0.22,0.10,0.03,-1.58,0.04,9.77,0.08,0.05,0.01,-0.88,2.46,9.45,-0.03,0.07,0.02,-0.57,0.59,9.89,0.03,0.06,0.02,-0.08,6.18,7.87,0.09,0.04,-0.03,0.36,-0.24,0.91,-5.49,2.14,-1.10,R
27.367,255,167,194,255,247,-1.08,-2.12,9.78,-0.32,0.04,0.09,-1.52,-0.01,9.77,0.00,0.01,0.00,-0.94,2.29,9.47,-0.04,0.02,0.01,-0.54,0.41,9.83,-0.01,0.03,-0.00,-0.08,6.12,7.87,0.03,0.05,-0.03,0.35,-0.24,0.92,-4.21,-3.42,0.85,R
27.418,255,167,194,255,246,-1.24,-3.33,9.59,-0.24,0.02,0.17,-1.58,0.00,9.81,0.04,0.05,0.04,-0.89,2.28,9.52,-0.04,0.06,0.05,-0.59,0.38,9.85,0.10,0.03,0.04,-0.05,6.24,7.83,0.16,0.04,0.04,0.33,-0.24,0.92,-2.81,4.09,4.21,R
27.468,255,167,193,255,248,-1.05,-2.47,9.60,-0.09,-0.01,0.13,-1.56,0.23,9.70,0.08,0.10,0.06,-1.03,2.43,9.43,-0.00,0.06,0.04,-0.60,0.68,9.76,0.07,0.00,0.02,-0.14,6.15,7.76,0.05,0.04,0.01,0.40,-0.24,0.89,-3.66,3.78,5.00,R
27.521,255,167,193,255,248,-1.12,-2.43,9.63,-0.10,0.06,0.05,-1.69,0.00,9.82,0.05,0.08,0.01,-1.07,2.41,9.47,0.01,0.06,0.01,-0.59,0.56,9.94,0.05,0.03,0.02,-0.09,6.25,7.84,0.09,0.02,0.02,0.36,-0.23,0.92,-1.89,3.78,2.56,R
27.57,255,168,192,255,248,-0.93,-2.45,9.57,-0.06,0.05,0.06,-1.58,0.13,9.75,0.04,0.11,0.02,-1.02,2.44,9.45,0.04,0.07,-0.00,-0.66,0.75,9.83,0.07,0.03,-0.01,-0.11,6.19,7.81,0.06,0.03,-0.02,0.38,-0.23,0.90,-3.42,2.44,1.04,R
27.621,255,167,193,255,247,-1.27,-2.51,9.56,-0.02,0.07,-0.05,-1.85,0.40,9.63,-0.03,0.09,0.00,-1.05,2.46,9.42,-0.03,0.03,-0.01,-0.61,0.68,9.78,-0.00,0.02,-0.01,-0.07,6.29,7.69,0.01,0.03,-0.02,0.37,-0.22,0.91,-0.49,-0.18,0.73,R
27.672,255,167,192,255,246,-1.14,-2.67,9.66,-0.05,0.01,0.00,-1.71,0.12,9.79,-0.01,0.05,0.00,-1.09,2.50,9.46,-0.03,0.02,0.00,-0.61,0.60,9.83,-0.00,0.02,-0.00,-0.10,6.24,7.84,0.04,0.04,-0.01,0.37,-0.23,0.91,0.92,1.04,1.65,R
27.724,255,167,193,255,245,-1.07,-2.89,9.62,-0.14,0.00,0.06,-1.68,0.21,9.76,0.01,0.06,0.00,-1.08,2.49,9.45,-0.02,0.05,0.00,-0.63,0.69,9.82,0.03,0.02,-0.01,-0.14,6.37,7.71,0.04,0.03,-0.02,0.37,-0.22,0.91,0.18,-0.12,0.85,R
27.775,255,167,194,255,246,-1.11,-3.08,9.54,-0.10,0.03,0.06,-1.71,0.31,9.70,-0.02,0.02,-0.00,-1.03,2.38,9.43,-0.03,0.01,-0.00,-0.65,0.63,9.84,-0.00,0.01,-0.01,-0.11,6.35,7.68,0.01,0.02,-0.03,0.38,-0.23,0.90,0.92,-1.28,0.24,R
27.826,255,168,193,255,247,-1.24,-2.55,9.59,0.01,0.02,-0.01,-1.79,0.20,9.72,0.00,0.03,-0.00,-1.09,2.43,9.43,-0.02,0.00,-0.00,-0.64,0.69,9.82,0.00,0.01,-0.00,-0.10,6.22,7.78,0.01,0.02,-0.00,0.37,-0.23,0.91,0.73,0.67,0.12,R
27.877,255,168,194,255,247,-1.26,-2.66,9.87,0.00,0.01,0.02,-1.76,0.18,9.84,-0.03,0.01,0.01,-1.24,2.22,9.87,0.01,0.01,-0.00,-0.71,0.63,10.04,0.00,0.02,0.01,-0.11,6.31,7.59,0.02,0.03,-0.01,0.38,-0.25,0.93,0.37,1.16,-0.24,R
27.93,255,168,193,255,247,-1.02,-2.57,9.40,-0.04,0.02,0.00,-1.65,0.15,9.77,-0.03,0.01,-0.00,-1.10,2.48,9.39,-0.06,-0.00,-0.01,-0.65,0.68,9.96,-0.01,0.02,-0.01,-0.12,6.39,7.74,0.02,0.02,-0.01,0.36,-0.22,0.90,1.40,-1.65,-0.43,R
27.978,255,167,192,255,245,-1.13,-2.58,9.44,0.02,0.03,0.02,-1.71,0.20,9.60,0.01,0.05,0.01,-1.11,2.37,9.39,-0.02,0.01,0.01,-0.73,0.71,9.84,0.01,0.01,0.00,-0.17,6.30,7.74,0.02,0.01,-0.00,0.38,-0.23,0.89,0.79,1.10,0.12,R
28.031,255,167,194,255,246,-1.09,-2.60,9.54,0.03,0.01,-0.01,-1.80,0.27,9.92,0.00,0.04,0.00,-0.97,2.35,9.02,-0.03,0.03,0.01,-0.58,0.74,9.70,-0.00,0.01,-0.00,-0.16,6.32,7.86,0.01,0.02,-0.02,0.38,-0.22,0.90,0.31,0.12,0.18,R
28.081,255,167,192,255,247,-1.27,-2.66,9.75,-0.03,0.02,-0.01,-1.79,0.10,9.84,-0.03,0.03,0.01,-1.12,2.32,9.47,-0.02,0.03,-0.00,-0.59,0.64,9.73,-0.01,0.02,0.00,-0.05,6.29,7.71,0.01,0.03,-0.02,0.38,-0.23,0.92,-0.37,-0.18,0.24,R
28.131,255,167,192,255,246,-1.19,-2.73,9.67,-0.03,0.05,-0.00,-1.77,0.22,9.82,0.02,0.03,0.00,-1.13,2.37,9.42,-0.02,0.02,0.01,-0.69,0.74,9.81,0.05,0.02,-0.00,-0.07,6.33,7.57,0.06,0.01,-0.01,0.37,-0.23,0.92,0.55,2.50,-0.12,R
28.182,255,167,194,255,246,-1.20,-2.52,9.50,0.05,0.02,-0.00,-1.74,0.27,9.24,0.07,0.04,0.00,-1.12,2.49,9.56,-0.08,-0.01,0.01,-0.70,0.72,9.84,-0.03,-0.00,-0.00,-0.18,6.21,7.78,-0.01,0.01,-0.01,0.40,-0.23,0.91,1.83,-0.31,-0.73,R
28.234,255,167,194,255,246,-1.15,-2.75,9.61,-0.01,0.08,-0.04,-1.59,-0.10,9.88,0.01,0.04,-0.02,-1.07,2.29,9.49,0.08,-0.02,-0.01,-0.67,0.71,9.84,0.05,-0.01,-0.03,-0.08,6.37,7.76,0.09,0.02,-0.04,0.36,-0.22,0.91,0.00,1.16,-1.71,R
28.285,255,166,194,255,245,-1.19,-2.55,10.08,0.49,-0.30,0.06,-1.87,0.18,9.66,0.21,-0.04,-0.09,-1.21,2.43,9.39,0.38,-0.15,-0.12,-0.72,0.78,9.73,-0.02,-0.03,-0.04,-0.23,6.32,7.63,-0.03,0.01,-0.04,0.40,-0.23,0.89,1.77,0.31,-1.16,R
28.336,255,167,194,255,246,-1.06,-3.02,9.84,0.52,-0.20,-0.21,-1.71,0.22,9.79,0.09,-0.17,-0.20,-0.90,2.78,9.24,0.31,-0.29,-0.15,-0.52,0.66,9.81,0.02,-0.06,-0.09,-0.20,6.27,7.76,-0.03,-0.01,-0.04,0.36,-0.23,0.92,3.54,-1.95,-1.65,R
28.387,255,167,196,255,245,-0.63,-2.55,9.63,0.78,-0.30,-0.28,-1.57,0.41,9.66,0.06,-0.16,-0.16,-0.88,3.08,9.38,0.01,-0.27,-0.10,-0.48,0.64,9.87,0.04,-0.07,-0.08,-0.11,6.24,7.73,0.08,-0.02,-0.06,0.39,-0.23,0.91,5.07,1.10,-4.76,R
